"Time (s)","Linear Acceleration x (m/s^2)","Linear Acceleration y (m/s^2)","Linear Acceleration z (m/s^2)","Absolute acceleration (m/s^2)"
4.959458369E-3,5.307205918E-1,3.733768791E-1,-1.808409315E-1,6.736305240E-1
1.489145833E-2,5.352926028E-1,2.847553092E-1,-1.091417885E-1,6.160646774E-1
2.482245833E-2,5.525016163E-1,1.793878984E-1,-6.882114351E-2,5.849567539E-1
3.475445835E-2,5.992408961E-1,8.588565767E-2,-7.250547409E-4,6.053647854E-1
4.468645836E-2,6.727296160E-1,-2.805669487E-2,-2.831397235E-2,6.739094861E-1
5.461845838E-2,6.393556094E-1,-1.579338795E-1,-7.315393031E-2,6.626237266E-1
6.455045834E-2,4.815946613E-1,-3.184259158E-1,9.405246377E-3,5.774226705E-1
7.448245835E-2,3.895542610E-1,-4.596993238E-1,2.612319607E-1,6.567481464E-1
8.441345836E-2,3.924109548E-1,-5.602071136E-1,5.027406782E-1,8.488619187E-1
9.434545838E-2,4.477340202E-1,-6.398631477E-1,4.949235356E-1,9.245755279E-1
1.042774583E-1,4.718747617E-1,-6.079186392E-1,3.183972645E-1,8.328311237E-1
1.142094583E-1,4.581832869E-1,-5.290981722E-1,-1.168215215E-2,7.000094806E-1
1.241414584E-1,3.665695872E-1,-4.679830742E-1,-3.335362905E-1,6.816361765E-1
1.340734584E-1,2.973409658E-1,-4.211445379E-1,-5.191959125E-1,7.316684818E-1
1.440054583E-1,1.970973788E-1,-4.381985271E-1,-7.214183575E-1,8.667812714E-1
1.539364583E-1,-1.726163842E-2,-3.303144747E-1,-8.226131952E-1,8.866217261E-1
1.638684584E-1,-1.848838426E-1,-2.018996787E-1,-8.219454432E-1,8.663370170E-1
1.738004584E-1,-2.731949253E-1,-1.786727840E-1,-7.204629225E-1,7.909653934E-1
1.837324583E-1,-2.863779116E-1,-2.609857929E-1,-5.160863632E-1,6.453456644E-1
1.936644583E-1,-2.951012995E-1,-3.230475551E-1,-3.056029719E-1,5.337018608E-1
2.035964584E-1,-3.266244065E-1,-3.300507653E-1,-1.467855781E-1,4.869938568E-1
2.135274584E-1,-3.447496422E-1,-2.461689484E-1,-1.553850782E-1,4.512161228E-1
2.234594583E-1,-3.755331860E-1,-1.505014837E-1,-2.428360355E-1,4.718529544E-1
2.333917917E-1,-4.664649543E-1,-9.824433267E-2,-2.556852919E-1,5.409403580E-1
2.433237917E-1,-5.283610941E-1,-5.538190305E-2,-3.329159009E-1,6.269494382E-1
2.532557917E-1,-5.892435826E-1,-7.496598244E-2,-4.892072976E-1,7.695139233E-1
2.631877917E-1,-7.212001833E-1,-2.787192285E-2,-6.012680161E-1,9.393773340E-1
2.731187917E-1,-8.298344334E-1,6.633958519E-2,-6.649196362E-1,1.065431485E0
2.830507917E-1,-1.001447801E0,1.095212728E-1,-5.558252102E-1,1.150579972E0
2.929827917E-1,-1.066529723E0,-1.240147662E-1,-4.140869486E-1,1.150796817E0
3.029147917E-1,-9.762145071E-1,-6.985323554E-1,-5.720038712E-1,1.329710737E0
3.128467917E-1,-1.485893418E0,-9.821655840E-1,6.659861684E-2,1.782403956E0
3.227787917E-1,-1.533506272E0,-7.370292538E-1,3.151795417E-1,1.730373298E0
3.327097917E-1,-1.244110759E0,-4.708961570E-1,3.023864186E-1,1.364181922E0
3.426417917E-1,-8.497081693E-1,-2.286553681E-1,3.883802497E-1,9.618349487E-1
3.525737917E-1,1.555644415E-2,3.569731003E-1,1.422204815E0,1.466403196E0
3.625057917E-1,5.916603830E-1,6.421207577E-1,1.105791510E0,1.408955621E0
3.724377917E-1,5.449469406E-1,4.304936510E-1,1.520498264E-1,7.109227112E-1
3.823697917E-1,3.435254545E-1,-1.230078757E-2,-4.030737180E-1,5.297447209E-1
3.923007917E-1,9.715883363E-2,-3.595406127E-1,-6.424324143E-1,7.425824520E-1
4.022327917E-1,-9.121597946E-2,-4.609857112E-1,-7.609613228E-1,8.943658735E-1
4.121647917E-1,-1.797838829E-1,-5.359873617E-1,-7.953470439E-1,9.757979384E-1
4.220967917E-1,5.082151338E-2,-7.174270481E-1,-7.791625357E-1,1.060367225E0
4.320287917E-1,2.130344218E-1,-5.581529868E-1,-8.987837040E-1,1.079226838E0
4.419607917E-1,-8.883429889E-2,-3.502102107E-1,-1.151674612E0,1.207018283E0
4.518927917E-1,-4.242118411E-1,-2.990926820E-1,-1.298630344E0,1.398518104E0
4.618237917E-1,-4.318968001E-1,-2.508788806E-1,-1.496475563E0,1.577629288E0
4.717557917E-1,-1.325007207E-1,-2.672613171E-1,-1.674237936E0,1.700605103E0
4.816877917E-1,2.540323206E-1,-4.132917273E-1,-1.736877987E0,1.803354545E0
4.916197917E-1,5.267763159E-1,-6.789526615E-1,-1.641487681E0,1.852822660E0
5.015517917E-1,6.620218293E-1,-8.220425069E-1,-1.670053083E0,1.975627517E0
5.114837917E-1,7.040877950E-1,-8.324751091E-1,-2.021301175E0,2.296608994E0
5.214147917E-1,5.575845643E-1,-8.411605632E-1,-2.714021398E0,2.895576590E0
5.313467917E-1,3.172375423E-1,-7.786476883E-1,-3.523638572E0,3.622562720E0
5.412787917E-1,6.029296486E-1,-7.783249220E-1,-4.114782134E0,4.230927304E0
5.512107917E-1,7.118592563E-1,-8.030258998E-1,-4.508396811E0,4.634353893E0
5.611427917E-1,3.320865100E-1,-7.258891386E-1,-4.661980362E0,4.729826359E0
5.710747917E-1,-3.943408648E-1,-6.396605417E-1,-4.645426310E0,4.705810868E0
5.810057917E-1,-7.791976190E-1,-8.737275079E-1,-4.673489437E0,4.817888770E0
5.909377917E-1,-7.844374551E-1,-1.318676061E0,-4.886583025E0,5.121810455E0
6.008697917E-1,-6.095991655E-1,-1.691953245E0,-5.030683562E0,5.342480138E0
6.108017917E-1,-5.082098714E-1,-1.673920432E0,-5.130657501E0,5.420694907E0
6.207337917E-1,-5.315490326E-1,-1.410608324E0,-4.822366564E0,5.052482508E0
6.306657917E-1,-7.921131682E-1,-1.436613231E0,-3.687024395E0,4.035523477E0
6.405977917E-1,-9.464140264E-1,-1.446613724E0,-5.790369022E-1,1.823094762E0
6.505287917E-1,6.886008596E-1,-1.682071450E0,1.898680385E0,2.628406877E0
6.604607917E-1,2.104127569E0,-2.483226534E0,2.093836470E0,3.870131523E0
6.703927917E-1,2.211360242E0,-2.276209079E0,1.290505053E0,3.425878746E0
6.803247917E-1,1.312929125E0,-1.196761030E0,7.496533924E-1,1.928211622E0
6.902567917E-1,1.282848416E-1,-2.787578201E-1,-2.207926172E-1,3.780374356E-1
7.001887917E-1,-1.003624135E0,6.519981667E-1,-2.330887270E0,2.620190542E0
7.101197917E-1,-2.249846323E0,1.983463258E0,-3.373124809E0,4.513746332E0
7.200517917E-1,-2.694679393E0,3.843423088E0,-2.522748449E0,5.328926515E0
7.299837917E-1,-1.981755578E0,5.961129938E0,8.615702695E-1,6.340719884E0
7.399157917E-1,-4.141506467E-1,7.640592946E0,6.745318156E0,1.020046559E1
7.498477917E-1,1.110822382E0,8.147144254E0,1.355209172E1,1.585146920E1
7.597797917E-1,1.717390387E0,7.338785986E0,1.985088082E1,2.123357433E1
7.697117917E-1,2.014369885E0,5.570621302E0,2.509106895E1,2.578083103E1
7.796427917E-1,2.665825138E0,3.962500758E0,2.927162699E1,2.965866118E1
7.895747917E-1,3.286657938E0,3.032511341E0,3.159975204E1,3.191461381E1
7.995067917E-1,3.813130710E0,2.857454183E0,3.228436978E1,3.263411623E1
8.094387917E-1,4.837827187E0,3.181398700E0,3.047940447E1,3.102450590E1
8.193707917E-1,6.045930353E0,2.809870419E0,2.677979394E1,2.759721017E1
8.293027917E-1,6.188529909E0,2.269080446E0,2.231091671E1,2.326421357E1
8.392337917E-1,4.776519130E0,2.783748567E0,1.684008633E1,1.772435891E1
8.491657917E-1,2.688442753E0,3.669451465E0,1.157437276E1,1.243618524E1
8.590977917E-1,7.562557029E-1,3.807075626E0,8.144616503E0,9.022223977E0
8.690297917E-1,-5.863660946E-3,3.322680879E0,6.129344977E0,6.972023555E0
8.789617917E-1,1.408668072E-1,2.808869960E0,4.422408827E0,5.240924894E0
8.888937917E-1,4.334312922E-1,2.397313979E0,2.400581403E0,3.420200004E0
8.988247917E-1,7.116140386E-1,2.021155579E0,1.341812616E0,2.528225764E0
9.087567917E-1,1.181083694E0,1.444603744E0,7.523068589E-1,2.011915574E0
9.186887917E-1,1.978851266E0,1.261412816E0,-1.435459868E0,2.750919784E0
9.286207917E-1,2.851405823E0,1.555687100E0,-5.033021278E0,5.990156985E0
9.385527917E-1,3.135750073E0,1.583592060E0,-8.715226398E0,9.396587865E0
9.484847917E-1,2.626816608E0,5.842532033E-1,-1.133022695E1,1.164540940E1
9.584167917E-1,1.430124283E0,-1.493247900E0,-1.211471981E1,1.228989344E1
9.683477917E-1,-4.968116015E-2,-3.522743655E0,-1.131226197E1,1.184818391E1
9.782797917E-1,-1.362840958E0,-4.779426074E0,-1.016715729E1,1.131686071E1
9.882117917E-1,-2.179989784E0,-5.166018537E0,-9.814253265E0,1.130308233E1
9.981437917E-1,-2.224500251E0,-5.220083063E0,-1.033044429E1,1.178625249E1
1.008075792E0,-1.743075597E0,-4.964831049E0,-1.149547395E1,1.264253855E1
1.018007792E0,-1.043392875E0,-4.483549945E0,-1.259800856E1,1.341270697E1
1.027938792E0,-3.340555964E-1,-4.013736985E0,-1.325597118E1,1.385432963E1
1.037870792E0,-6.272461720E-2,-3.701144251E0,-1.338024322E1,1.388284235E1
1.047802792E0,-3.916094111E-1,-3.513138142E0,-1.311899664E1,1.358688965E1
1.057734792E0,-9.992933942E-1,-3.499169728E0,-1.237520625E1,1.289916687E1
1.067666792E0,-1.451349676E0,-3.869992836E0,-1.112963471E1,1.187232198E1
1.077598792E0,-1.904538856E0,-4.559106789E0,-9.638053853E0,1.083073428E1
1.087530792E0,-2.279770765E0,-4.932988282E0,-8.576861980E0,1.015353582E1
1.097461792E0,-2.241221972E0,-4.821504684E0,-7.946073711E0,9.560861403E0
1.107393792E0,-2.094046969E0,-4.675202671E0,-7.488347238E0,9.072921088E0
1.117325792E0,-2.016709064E0,-4.558465349E0,-7.025402709E0,8.614116613E0
1.127257792E0,-1.693588857E0,-4.273477321E0,-6.622812556E0,8.061792467E0
1.137189792E0,-1.286533770E0,-4.061707542E0,-6.704217492E0,7.943498567E0
1.147121792E0,-1.060776063E0,-4.041113064E0,-6.957993668E0,8.116003730E0
1.157052792E0,-1.126536481E0,-4.157926691E0,-6.779238439E0,8.032154918E0
1.166984792E0,-1.209325673E0,-4.308480800E0,-5.913652301E0,7.415979971E0
1.176916792E0,-1.181899162E0,-4.501581589E0,-5.097223706E0,6.902377267E0
1.186848792E0,-1.255387991E0,-4.586480529E0,-5.086956580E0,6.963399306E0
1.196780792E0,-1.271735783E0,-4.363959767E0,-5.801529018E0,7.370155744E0
1.206712792E0,-1.412931861E0,-3.857409628E0,-6.547890428E0,7.729867692E0
1.216644792E0,-1.611498481E0,-3.440231256E0,-7.262956955E0,8.196503046E0
1.226575792E0,-1.758521164E0,-3.159401768E0,-8.190241157E0,8.952891512E0
1.236509042E0,-1.727507532E0,-3.060877061E0,-9.026893517E0,9.687004554E0
1.246441042E0,-1.520109716E0,-2.918956659E0,-9.564080728E0,1.011447881E1
1.256373042E0,-1.329088051E0,-2.675064616E0,-9.770375758E0,1.021678463E1
1.266305042E0,-1.341845653E0,-2.508497322E0,-9.623897159E0,1.003556202E1
1.276237042E0,-1.421576531E0,-2.450314896E0,-9.651665586E0,1.005880567E1
1.286169042E0,-1.345864006E0,-2.404054649E0,-9.514182928E0,9.905074733E0
1.296100042E0,-1.001042589E0,-2.321636682E0,-9.028285739E0,9.375608063E0
1.306032042E0,-5.209344359E-1,-2.278766359E0,-7.974216945E0,8.309770435E0
1.315964042E0,-2.991603635E-1,-2.475431610E0,-7.211074610E0,7.629997092E0
1.325896042E0,-3.130600722E-1,-2.606769137E0,-7.586785113E0,8.028235192E0
1.335828042E0,-8.844156334E-1,-2.850591598E0,-8.054959391E0,8.590135870E0
1.345760042E0,-1.558480461E0,-2.737158538E0,-8.938766037E0,9.477469941E0
1.355691042E0,-1.833192447E0,-2.330128301E0,-1.002657853E1,1.045573381E1
1.365623042E0,-1.955863376E0,-2.030967499E0,-1.097089450E1,1.132743381E1
1.375555042E0,-2.243349628E0,-2.179896374E0,-1.147561680E1,1.189429892E1
1.385487042E0,-2.665533947E0,-2.543850465E0,-1.129870461E1,1.188431623E1
1.395419042E0,-2.831339348E0,-2.717254031E0,-1.014271827E1,1.087541658E1
1.405351042E0,-2.457734427E0,-2.676112145E0,-7.725840088E0,8.537601524E0
1.415283042E0,-1.422859410E0,-2.406518373E0,-3.503903634E0,4.482543949E0
1.425214042E0,-4.424272335E-1,-1.504460667E0,8.225412744E-1,1.770795839E0
1.435146042E0,-3.326748495E-1,-8.824354738E-2,3.476984223E0,3.493977499E0
1.445078042E0,-1.576858114E0,1.519406881E0,3.493179840E0,4.122788398E0
1.455010042E0,-3.584128895E0,2.815005736E0,1.619886897E0,4.836762428E0
1.464942042E0,-4.737593339E0,3.598767399E0,6.428458124E-1,5.984076217E0
1.474874042E0,-3.149933664E0,4.281920700E0,3.774729121E0,6.519624752E0
1.484806042E0,3.577974115E-1,4.647648252E0,1.125599304E1,1.218302231E1
1.494737042E0,3.465435972E0,4.982393746E0,1.915734257E1,2.009570273E1
1.504669042E0,5.380144159E0,5.224047475E0,2.537645751E1,2.646131552E1
1.514601042E0,5.413422418E0,4.966905642E0,2.826335418E1,2.920261090E1
1.524533042E0,4.273982228E0,4.830315561E0,2.912299311E1,2.982863725E1
1.534465042E0,3.416185167E0,4.695904738E0,3.241522111E1,3.293126784E1
1.544397042E0,3.738339559E0,4.703415486E0,3.637535784E1,3.686819710E1
1.554328042E0,3.400245949E0,4.488535866E0,3.967989773E1,4.007746138E1
1.564260042E0,2.127178463E0,2.545813083E0,4.375144029E1,4.387703932E1
1.574192042E0,2.147623691E0,-1.352920718E-1,4.736885533E1,4.741770816E1
1.584124042E0,3.303389745E0,-2.088800117E0,4.857367646E1,4.873066298E1
1.594056042E0,5.257657855E0,-2.866420888E0,4.567075842E1,4.606167072E1
1.603988042E0,7.527066330E0,-2.606857138E0,3.865550297E1,3.946771264E1
1.613920042E0,8.805568219E0,-1.747189260E0,2.970350468E1,3.103045105E1
1.623851042E0,8.900588397E0,-9.542541924E-1,2.075976500E1,2.260749694E1
1.633783042E0,8.315784971E0,-8.985343203E-2,1.202045100E1,1.461682577E1
1.643715042E0,6.479356382E0,9.917734364E-1,4.649383121E0,8.036319872E0
1.653647042E0,4.163371326E0,1.915467741E0,-8.190282673E-1,4.655479005E0
1.663579042E0,2.266740244E0,2.302050557E0,-4.277690240E0,5.360613947E0
1.673511042E0,1.383463649E0,1.551168372E0,-5.951258669E0,6.303774641E0
1.683443042E0,1.260876773E0,-8.825787306E-3,-6.664609038E0,6.782838769E0
1.693374042E0,7.917203815E-1,-1.110367834E0,-7.453510696E0,7.577239576E0
1.703306042E0,-4.557539881E-1,-2.228642857E0,-8.576881860E0,8.873413274E0
1.713238042E0,-1.972721045E0,-3.563995469E0,-1.024085325E1,1.102128701E1
1.723170042E0,-2.878821955E0,-4.318421944E0,-1.216812828E1,1.322874634E1
1.733102042E0,-2.927610830E0,-4.553757171E0,-1.385726024E1,1.487720642E1
1.743034042E0,-2.130908694E0,-4.517115302E0,-1.492411982E1,1.573767629E1
1.752966042E0,-7.293544909E-1,-4.395370425E0,-1.499552134E1,1.564342991E1
1.762897042E0,2.784920642E-1,-4.190492467E0,-1.400884346E1,1.462482410E1
1.772829042E0,4.859000393E-1,-4.243862050E0,-1.289494654E1,1.358403880E1
1.782761042E0,2.480277783E-1,-4.345224703E0,-1.208249931E1,1.284247971E1
1.792693042E0,-1.578970420E-1,-4.402007599E0,-1.161266735E1,1.242000988E1
1.802625042E0,-5.879894279E-1,-4.282264224E0,-1.180134413E1,1.256802458E1
1.812557042E0,-1.005828973E0,-3.941904525E0,-1.234200108E1,1.299520273E1
1.822489042E0,-1.323034283E0,-3.571061537E0,-1.286724009E1,1.341897045E1
1.832420042E0,-1.596378020E0,-3.246513002E0,-1.305299210E1,1.354506819E1
1.842352042E0,-1.725838298E0,-3.013840304E0,-1.276680130E1,1.323075835E1
1.852284042E0,-1.648057612E0,-2.884554565E0,-1.214137025E1,1.258767733E1
1.862216042E0,-1.370761450E0,-2.724281215E0,-1.131861672E1,1.172227706E1
1.872148042E0,-1.156956840E0,-2.388873523E0,-1.051065431E1,1.084062359E1
1.882080042E0,-9.155397776E-1,-2.049177775E0,-9.906655644E0,1.015771474E1
1.892011042E0,-7.460485840E-1,-1.823163595E0,-9.306472287E0,9.512672621E0
1.901943042E0,-6.822881325E-1,-1.709135580E0,-8.828847154E0,9.018603195E0
1.911875042E0,-7.442437678E-1,-1.491228126E0,-8.668757406E0,8.827514660E0
1.921807042E0,-9.207128093E-1,-1.299662962E0,-8.605089414E0,8.751251322E0
1.931739042E0,-1.059270916E0,-1.341181409E0,-8.325704772E0,8.499304818E0
1.941671042E0,-1.159119871E0,-1.517164181E0,-7.713888379E0,7.946660931E0
1.951603042E0,-1.179498514E0,-1.724293464E0,-7.057629638E0,7.360335645E0
1.961535042E0,-1.235234247E0,-1.797127697E0,-6.407731499E0,6.768640526E0
1.971466042E0,-1.158201201E0,-1.769209289E0,-5.798221833E0,6.171783207E0
1.981398042E0,-1.006929054E0,-1.730672484E0,-5.477008549E0,5.831531189E0
1.991330042E0,-9.051725180E-1,-1.725723546E0,-5.342544224E0,5.686847794E0
2.001262042E0,-7.396320688E-1,-1.644767969E0,-5.620082899E0,5.902342676E0
2.011194042E0,-6.412022332E-1,-1.381396950E0,-6.276132309E0,6.458268700E0
2.021126042E0,-5.997698133E-1,-1.169156178E0,-7.061574170E0,7.182790527E0
2.031058042E0,-6.973564073E-1,-1.232136246E0,-7.673986979E0,7.803495489E0
2.040989042E0,-9.256810422E-1,-1.323228264E0,-8.204544032E0,8.361959172E0
2.050921042E0,-1.005256385E0,-1.358695428E0,-8.625700849E0,8.789727459E0
2.060853042E0,-9.711997157E-1,-1.368619176E0,-8.766188391E0,8.925379893E0
2.070785042E0,-9.655717707E-1,-1.382768853E0,-8.637987018E0,8.801090743E0
2.080717042E0,-8.680321737E-1,-1.367826294E0,-8.405589432E0,8.560278169E0
2.090649042E0,-5.706805001E-1,-1.251608497E0,-8.135376148E0,8.250851176E0
2.100581042E0,-2.103918824E-1,-1.160301594E0,-7.957632487E0,8.044531020E0
2.110512042E0,-2.623499483E-2,-1.004094397E0,-8.079385550E0,8.141582444E0
2.120444042E0,1.312641442E-2,-8.504269382E-1,-8.458466388E0,8.501120627E0
2.130376042E0,8.659141660E-3,-7.888756379E-1,-8.711054410E0,8.746706162E0
2.140308042E0,-1.264752746E-2,-7.714734471E-1,-8.684098161E0,8.718307869E0
2.150240042E0,-1.020280659E-2,-8.506456241E-1,-7.998253679E0,8.043367702E0
2.160172042E0,-1.546237707E-2,-1.159310783E0,-6.841537598E0,6.939083317E0
2.170104042E0,-4.447674353E-1,-1.631762007E0,-5.325471523E0,5.587585549E0
2.180035042E0,-1.375688898E0,-2.021330118E0,-3.941809800E0,4.638551487E0
2.189967042E0,-2.201249236E0,-1.491181933E0,-3.329935520E0,4.261172646E0
2.199899042E0,-3.349953462E0,-5.924814051E-1,-3.405192109E0,4.813372592E0
2.209831042E0,-4.853224952E0,6.188922550E-1,-3.553725420E0,6.046964893E0
2.219763042E0,-5.434122146E0,2.024675457E0,-2.189268292E0,6.198539332E0
2.229695042E0,-4.545357938E0,3.893062148E0,-1.419657183E-1,5.986348298E0
2.239624958E0,-2.517393569E0,5.661588775E0,3.912419356E0,7.327883941E0
2.249555958E0,1.295076406E-1,6.325672844E0,1.206445013E1,1.362284354E1
2.259487958E0,2.215500217E0,5.539239880E0,2.027303108E1,2.113261481E1
2.269419958E0,2.647874478E0,3.967123566E0,2.846708053E1,2.886388717E1
2.279351958E0,1.933684887E0,3.333697034E0,3.546339334E1,3.567218721E1
2.289283958E0,1.933104113E0,3.373737012E0,3.915806414E1,3.935064142E1
2.299215958E0,3.446464680E0,4.049891196E0,4.062649178E1,4.097305909E1
2.309147958E0,5.441431165E0,4.206601546E0,4.284664681E1,4.339515887E1
2.319078958E0,6.445574094E0,2.803573260E0,4.550538513E1,4.604503800E1
2.329010958E0,5.417259361E0,-7.514413248E-1,4.735092543E1,4.766572670E1
2.338942958E0,3.827295590E0,-5.461788247E0,4.780244742E1,4.826544625E1
2.348874958E0,3.321767544E0,-8.435726566E0,4.375862535E1,4.468795044E1
2.358806958E0,3.387223030E0,-7.676993033E0,3.497334989E1,3.596588250E1
2.368738958E0,3.444083694E0,-4.657568930E0,2.540154674E1,2.605366074E1
2.378670958E0,3.870253329E0,-1.919605962E0,1.832595738E1,1.882828887E1
2.388601958E0,4.346169613E0,-8.036969409E-1,1.093733850E1,1.179663056E1
2.398533958E0,4.360675678E0,1.527543428E-1,3.095140575E0,5.349646852E0
2.408465958E0,4.455585929E0,1.664723346E0,-2.780243454E0,5.509383219E0
2.418397958E0,4.839033175E0,2.921677660E0,-5.534163328E0,7.910714643E0
2.428329958E0,4.277009624E0,3.020855209E0,-6.359883149E0,8.238112112E0
2.438261958E0,2.493093125E0,1.663081740E0,-6.597984109E0,7.246706045E0
2.448193958E0,2.378246793E-1,-5.896572000E-1,-6.944246864E0,6.973293390E0
2.458125958E0,-1.632244695E0,-2.044469013E0,-7.693897918E0,8.126508565E0
2.468056958E0,-2.516808555E0,-2.171601076E0,-8.509642389E0,9.135873802E0
2.477988958E0,-3.007739904E0,-2.089502221E0,-9.070504391E0,9.781951174E0
2.487920958E0,-3.220631179E0,-2.199827194E0,-9.338754764E0,1.012047654E1
2.497852958E0,-3.103583955E0,-1.756625204E0,-9.808311909E0,1.043651992E1
2.507784958E0,-2.257129322E0,-5.901311168E-1,-1.110432095E1,1.134675421E1
2.517716958E0,-1.053512798E0,5.169559903E-1,-1.331716463E1,1.336876982E1
2.527648958E0,-1.250115703E-1,1.096178395E0,-1.538721930E1,1.542672204E1
2.537579958E0,4.364551798E-1,1.325496399E0,-1.608614634E1,1.614656428E1
2.547511958E0,3.995741594E-1,1.166043559E0,-1.530654293E1,1.535609239E1
2.557443958E0,7.294576943E-2,4.806398110E-1,-1.325045725E1,1.325937227E1
2.567375958E0,-3.100350883E-1,-5.368670753E-1,-1.085888173E1,1.087656474E1
2.577307958E0,-1.031325830E0,-1.273769298E0,-9.596890039E0,9.735831738E0
2.587239958E0,-1.751516492E0,-1.458354056E0,-9.479075076E0,9.749229245E0
2.597171958E0,-2.075447269E0,-1.406950014E0,-9.619193659E0,9.940617504E0
2.607103958E0,-2.044872617E0,-1.383093666E0,-9.778677050E0,1.008548348E1
2.617034958E0,-2.073436119E0,-1.283996079E0,-1.000007427E1,1.029316611E1
2.626966958E0,-2.059024194E0,-1.186869441E0,-1.046306616E1,1.072958495E1
2.636898958E0,-2.037252671E0,-1.213354989E0,-1.106708822E1,1.131826269E1
2.646830958E0,-2.081113221E0,-1.322236138E0,-1.147444502E1,1.173636354E1
2.656762958E0,-2.004148368E0,-1.409204115E0,-1.135108982E1,1.161248066E1
2.666694958E0,-1.937640675E0,-1.516874160E0,-1.091796200E1,1.119183867E1
2.676626958E0,-1.878740064E0,-1.727931163E0,-1.051826855E1,1.082355689E1
2.686557958E0,-1.779482555E0,-1.975355801E0,-1.036454759E1,1.070011381E1
2.696489958E0,-1.625404914E0,-2.129865405E0,-1.017386521E1,1.052073197E1
2.706421958E0,-1.459803581E0,-2.125234848E0,-9.711777302E0,1.004819725E1
2.716353958E0,-1.214943970E0,-2.077505635E0,-8.906618046E0,9.226048099E0
2.726285958E0,-1.057629676E0,-2.064814107E0,-8.032424222E0,8.360734221E0
2.736217958E0,-1.101062355E0,-2.188785019E0,-7.343269047E0,7.741234944E0
2.746149958E0,-9.467305800E-1,-2.195169594E0,-6.793406827E0,7.201766773E0
2.756081958E0,-7.346779422E-1,-1.961096781E0,-6.231390000E0,6.573878124E0
2.766012958E0,-3.940637434E-1,-1.706586194E0,-5.982159449E0,6.233294021E0
2.775944958E0,7.670618691E-2,-1.504389039E0,-6.197055150E0,6.377504429E0
2.785876958E0,4.158478376E-1,-1.278673504E0,-6.452185541E0,6.590799163E0
2.795808958E0,5.540832516E-1,-1.140538078E0,-6.898502927E0,7.014070002E0
2.805740958E0,6.687665194E-1,-1.001445681E0,-7.554090407E0,7.649472138E0
2.815672958E0,7.879481234E-1,-8.583480151E-1,-8.427458019E0,8.507624358E0
2.825604958E0,7.764487698E-1,-8.077297655E-1,-9.272537386E0,9.339981244E0
2.835536958E0,5.906886488E-1,-7.682788208E-1,-9.970732942E0,1.001771834E1
2.845467958E0,2.259408713E-1,-7.675403906E-1,-1.052956304E1,1.055991786E1
2.855399958E0,-2.726600513E-1,-9.232811256E-1,-1.084372926E1,1.088637937E1
2.865331958E0,-6.802943051E-1,-1.196805176E0,-1.088670161E1,1.097339578E1
2.875263958E0,-8.681852976E-1,-1.292631100E0,-1.092350867E1,1.103393323E1
2.885195958E0,-9.630232617E-1,-1.076356554E0,-1.074807348E1,1.084467800E1
2.895127958E0,-1.166324153E0,-8.501921725E-1,-1.031649751E1,1.041696980E1
2.905059958E0,-1.394051348E0,-1.213197187E0,-1.026555189E1,1.043056960E1
2.914990958E0,-1.345778782E0,-1.621844837E0,-1.103667802E1,1.123609197E1
2.924922958E0,-1.302692112E0,-1.690029218E0,-1.085960795E1,1.106726210E1
2.934854958E0,-1.683340004E0,-1.391463517E0,-8.842059522E0,9.107789023E0
2.944786958E0,-2.324272900E0,-1.344062917E0,-5.955615429E0,6.532848137E0
2.954718958E0,-2.554805516E0,-1.065414220E0,-3.964296438E0,4.835057904E0
2.964650958E0,-2.534594908E0,1.885450036E-1,-3.620969569E0,4.423928253E0
2.974582958E0,-2.651982147E0,2.789461297E0,-4.858412309E0,6.198247640E0
2.984514958E0,-3.211664473E0,5.476413887E0,-5.871948790E0,8.647871434E0
2.994445958E0,-4.269853509E0,5.487217203E0,-2.978093351E0,7.563745212E0
3.004377958E0,-4.792742523E0,3.757542108E0,6.271711230E0,8.742074429E0
3.014309958E0,-3.803340425E0,3.097275394E0,1.939659426E1,2.000715827E1
3.024241958E0,-1.118453217E0,3.076499067E0,3.302928400E1,3.319110401E1
3.034173958E0,2.319510342E0,2.750175609E0,4.362022409E1,4.376833951E1
3.044105958E0,6.843774742E0,1.079563021E0,4.957450928E1,5.005631508E1
3.054037958E0,1.063819612E1,-1.600939871E0,5.712318984E1,5.812738634E1
3.063968958E0,1.270155456E1,-5.652510388E0,7.029567096E1,7.165725168E1
3.073900958E0,1.209224779E1,-1.120340201E1,8.248212441E1,8.411325414E1
3.083832958E0,9.570868760E0,-1.488596674E1,8.039671729E1,8.232147767E1
3.093764958E0,7.450425121E0,-1.303549840E1,6.390346674E1,6.564362966E1
3.103696958E0,6.706842892E0,-8.647146097E0,4.191015676E1,4.331531042E1
3.113628958E0,6.260902652E0,-4.117413381E0,2.120613443E1,2.249115676E1
3.123560958E0,4.180346378E0,-3.154355767E-1,6.254084213E0,7.529167603E0
3.133492958E0,1.687900686E0,1.572937117E0,-1.635055743E0,2.827816681E0
3.143423958E0,1.009114231E0,1.677176746E0,-4.406554102E0,4.821716750E0
3.153355958E0,2.500341918E0,1.644827318E0,-5.685340750E0,6.424972066E0
3.163287958E0,4.083092564E0,2.066981670E0,-7.355147080E0,8.662692808E0
3.173219958E0,3.356439779E0,1.555452627E0,-8.657419070E0,9.414670776E0
3.183151958E0,1.252854539E0,1.578440516E-1,-9.054786490E0,9.142413118E0
3.193083958E0,-4.397179261E-1,-1.336884875E0,-8.687067962E0,8.800327425E0
3.203015958E0,-1.161249939E0,-2.096051687E0,-8.688687640E0,9.013058693E0
3.212947958E0,-1.339962849E0,-2.051170214E0,-9.417460041E0,9.730948223E0
3.222878958E0,-1.066577889E0,-1.802204835E0,-1.051047539E1,1.071707159E1
3.232811917E0,-8.892675798E-2,-1.395229562E0,-1.205307379E1,1.213388483E1
3.242743917E0,7.496952000E-1,-5.578058814E-1,-1.366500379E1,1.369691640E1
3.252675917E0,9.043312499E-1,1.352089682E-1,-1.500412844E1,1.503196483E1
3.262607917E0,8.151909589E-1,5.207867937E-1,-1.588870809E1,1.591812803E1
3.272539917E0,1.179734157E0,6.630628529E-1,-1.630752427E1,1.636358068E1
3.282471917E0,1.615010465E0,6.191871008E-1,-1.606334454E1,1.615619662E1
3.292402917E0,1.705608686E0,5.370166178E-1,-1.518100204E1,1.528595142E1
3.302334917E0,1.409193883E0,2.913071144E-1,-1.404696965E1,1.412048312E1
3.312266917E0,9.076071525E-1,-2.600139856E-2,-1.251863845E1,1.255152323E1
3.322198917E0,4.971791721E-1,-3.525843264E-1,-1.116130791E1,1.117793796E1
3.332130917E0,2.947943207E-2,-6.705816413E-1,-1.039616115E1,1.041780761E1
3.342062917E0,-5.671464064E-1,-9.690704522E-1,-1.006510700E1,1.012754321E1
3.351994917E0,-1.075961940E0,-1.254826366E0,-1.004556795E1,1.018065414E1
3.361926917E0,-1.169191846E0,-1.393203648E0,-1.014940748E1,1.031108618E1
3.371858917E0,-1.087674278E0,-1.419496238E0,-1.027884729E1,1.043325005E1
3.381789917E0,-1.118681259E0,-1.389978909E0,-1.056410254E1,1.071371792E1
3.391721917E0,-1.342793925E0,-1.438036589E0,-1.093569660E1,1.111127828E1
3.401653917E0,-1.609644767E0,-1.663176173E0,-1.125255956E1,1.148813335E1
3.411585917E0,-1.858613363E0,-1.862232935E0,-1.146793590E1,1.176587901E1
3.421517917E0,-2.198158691E0,-1.992522056E0,-1.161389877E1,1.198685490E1
3.431449917E0,-2.350243746E0,-1.904520584E0,-1.172297741E1,1.210698326E1
3.441381917E0,-2.229486464E0,-1.677876073E0,-1.157033702E1,1.190204086E1
3.451313917E0,-2.052397837E0,-1.546562228E0,-1.121924329E1,1.150980502E1
3.461244917E0,-1.810659032E0,-1.464257843E0,-1.083311773E1,1.108056753E1
3.471176917E0,-1.471911702E0,-1.384997081E0,-1.053152536E1,1.072370120E1
3.481108917E0,-1.083892811E0,-1.273535117E0,-1.023633920E1,1.037204684E1
3.491040917E0,-7.334180865E-1,-1.142155783E0,-9.890332557E0,9.983040619E0
3.500972917E0,-3.630601614E-1,-1.070987202E0,-9.578107029E0,9.644633768E0
3.510904917E0,7.909014241E-2,-9.975023921E-1,-9.339642956E0,9.393093038E0
3.520836917E0,5.516311852E-1,-9.306823120E-1,-9.221356122E0,9.284604206E0
3.530768917E0,8.898297165E-1,-9.432788225E-1,-9.304918097E0,9.394842875E0
3.540699917E0,9.445190169E-1,-1.005634334E0,-9.499540331E0,9.599202211E0
3.550631917E0,9.277076872E-1,-1.085395984E0,-9.652366083E0,9.757402164E0
3.560563917E0,8.169373029E-1,-1.207328191E0,-9.720503102E0,9.829201823E0
3.570495917E0,7.662441359E-1,-1.395724383E0,-9.901996583E0,1.002919304E1
3.580427917E0,7.126045570E-1,-1.524097079E0,-1.017000137E1,1.030822997E1
3.590359917E0,5.659913986E-1,-1.584723496E0,-1.045000699E1,1.058462757E1
3.600291917E0,3.546081939E-1,-1.597912475E0,-1.083363462E1,1.095658297E1
3.610223917E0,1.853718659E-1,-1.644516538E0,-1.114120284E1,1.126344522E1
3.620154917E0,-6.450246312E-2,-1.731035742E0,-1.116549802E1,1.129907038E1
3.630086917E0,-3.729357798E-1,-1.863975260E0,-1.091566404E1,1.107994613E1
3.640018917E0,-5.039245201E-1,-1.877288200E0,-1.038848726E1,1.056876618E1
3.649950917E0,-4.443265553E-1,-1.615802032E0,-9.719089245E0,9.862501612E0
3.659882917E0,-1.935098013E-1,-1.186872511E0,-9.085179148E0,9.164419924E0
3.669814917E0,1.188833959E-2,-9.587363025E-1,-7.859664727E0,7.917931943E0
3.679746917E0,-2.103713075E-1,-1.007183481E0,-5.856730242E0,5.946424453E0
3.689678917E0,-8.411389285E-1,-9.771312775E-1,-3.209606838E0,3.458883676E0
3.699610917E0,-2.601485593E0,-5.824180546E-1,-1.043046793E0,2.862670902E0
3.709541917E0,-4.508579536E0,6.348450673E-1,-8.330060363E-1,4.628630116E0
3.719473917E0,-5.439730210E0,1.994850271E0,-3.047557104E-1,5.801979697E0
3.729405917E0,-4.755671175E0,2.333982201E0,4.551594871E0,6.984332260E0
3.739337917E0,-1.464084327E0,1.438298545E0,1.395199449E1,1.410214154E1
3.749269917E0,3.314141021E0,7.906121148E-1,2.599750432E1,2.621981749E1
3.759201917E0,7.980411485E0,2.471570913E-1,3.670831467E1,3.756658648E1
3.769133917E0,1.071235869E1,-1.579178874E0,4.269214467E1,4.404392865E1
3.779065917E0,1.073419804E1,-3.120945507E0,4.662119760E1,4.794266757E1
3.788996917E0,1.136972022E1,-3.555612024E0,5.049052940E1,5.187683948E1
3.798928917E0,1.358082026E1,-3.314947937E0,5.535810255E1,5.709594623E1
3.808860917E0,1.373986920E1,-3.393130765E0,5.757058136E1,5.928464540E1
3.818792917E0,1.071370355E1,-4.414703074E0,5.318009892E1,5.442789696E1
3.828724917E0,7.097376087E0,-5.042742859E0,4.353071491E1,4.439285014E1
3.838656917E0,4.185253361E0,-4.386360450E0,3.184687175E1,3.241881774E1
3.848588917E0,2.451770998E0,-2.634416527E0,2.168569967E1,2.198228609E1
3.858520917E0,2.153907547E0,-4.763904932E-1,1.404026289E1,1.421250321E1
3.868451917E0,2.582880630E0,1.222025314E0,9.192715876E0,9.626559270E0
3.878383917E0,2.726574493E0,1.557558648E0,7.027755044E0,7.697372173E0
3.888315917E0,2.443535780E0,6.508092816E-1,6.109064494E0,6.611738714E0
3.898247917E0,2.161528516E0,-2.166791741E-1,5.531115759E0,5.942423490E0
3.908179917E0,2.071048262E0,-5.782266974E-1,4.833615437E0,5.290314283E0
3.918111917E0,1.664644409E0,-7.194871683E-1,4.173736686E0,4.550690136E0
3.928043917E0,1.072764244E0,-7.664780977E-1,2.909154094E0,3.193977041E0
3.937975917E0,7.548806570E-1,-8.633083543E-1,8.758193493E-2,1.150137695E0
3.947906917E0,4.702554484E-1,-7.539300460E-1,-3.570864193E0,3.679758387E0
3.957838917E0,3.761427583E-1,-6.120295972E-1,-6.816794520E0,6.854542372E0
3.967770917E0,6.840789154E-2,-6.296261349E-1,-9.326335278E0,9.347814634E0
3.977702917E0,-4.300268970E-1,-7.571852640E-1,-1.102067068E1,1.105501854E1
3.987634917E0,-9.840171048E-1,-8.278330777E-1,-1.199198442E1,1.206073329E1
3.997566917E0,-1.339360001E0,-7.951249959E-1,-1.245224683E1,1.254928524E1
4.007498917E0,-1.439151507E0,-6.442461475E-1,-1.280735057E1,1.290404738E1
4.017430917E0,-1.629444463E0,-4.433917317E-1,-1.304779276E1,1.315661740E1
4.027362917E0,-1.494909825E0,-6.724561125E-2,-1.342688412E1,1.351001460E1
4.037293917E0,-1.579264974E0,-1.440341708E-1,-1.394059359E1,1.403050154E1
4.047225917E0,-2.118356330E0,-3.025099410E-1,-1.460690019E1,1.476280728E1
4.057157917E0,-2.586969295E0,-3.224930929E-1,-1.493236439E1,1.515822939E1
4.067089917E0,-2.882391973E0,-1.805666971E-1,-1.461344907E1,1.489609618E1
4.077021917E0,-2.957336905E0,-2.118791217E-1,-1.387371665E1,1.418699221E1
4.086953917E0,-2.907190599E0,-3.972931606E-1,-1.292714365E1,1.325596628E1
4.096885917E0,-2.824297839E0,-6.606099460E-1,-1.226032250E1,1.259875278E1
4.106817917E0,-2.716566398E0,-8.431842846E-1,-1.197797215E1,1.231107264E1
4.116748917E0,-2.752037363E0,-9.907166983E-1,-1.175390918E1,1.211237426E1
4.126680917E0,-2.723083413E0,-1.071304048E0,-1.154805445E1,1.191303644E1
4.136612917E0,-2.490032400E0,-1.122881021E0,-1.150451491E1,1.182433873E1
4.146544917E0,-2.130326457E0,-1.305930739E0,-1.150281220E1,1.177108468E1
4.156476917E0,-2.014958992E0,-1.583687515E0,-1.162367766E1,1.190285714E1
4.166408917E0,-2.184304006E0,-1.851594219E0,-1.163174915E1,1.197903057E1
4.176340917E0,-2.226735203E0,-2.019979265E0,-1.146189456E1,1.184962838E1
4.186272917E0,-2.169450177E0,-2.128859976E0,-1.116130908E1,1.156777330E1
4.196204917E0,-2.288195579E0,-2.285263054E0,-1.082781080E1,1.130043153E1
4.206135917E0,-2.419489544E0,-2.386985895E0,-1.056286176E1,1.109620115E1
4.216067917E0,-2.467664461E0,-2.440964174E0,-1.042174857E1,1.098455812E1
4.225999917E0,-2.543181544E0,-2.461870163E0,-1.027601841E1,1.086853861E1
4.235931958E0,-2.513417170E0,-2.431282647E0,-1.002789532E1,1.062012645E1
4.245863958E0,-2.339865085E0,-2.360135627E0,-9.810093555E0,1.035775769E1
4.255795958E0,-2.137308325E0,-2.317955714E0,-9.607065364E0,1.011121706E1
4.265727958E0,-1.996621978E0,-2.292384232E0,-9.521993639E0,9.995493367E0
4.275659958E0,-1.844373638E0,-2.224070481E0,-9.495288820E0,9.925155586E0
4.285591958E0,-1.637434976E0,-2.133809936E0,-9.432346467E0,9.808338189E0
4.295522958E0,-1.425556585E0,-2.082191886E0,-9.292919610E0,9.629438691E0
4.305454958E0,-1.195654006E0,-2.153484209E0,-9.338783416E0,9.658155022E0
4.315386958E0,-9.835497661E-1,-2.309563498E0,-9.542872292E0,9.867515658E0
4.325318958E0,-7.151798900E-1,-2.303439709E0,-9.986445580E0,1.027357835E1
4.335250958E0,-4.184323069E-1,-2.032982450E0,-1.057549408E1,1.077725282E1
4.345182958E0,-3.626821024E-1,-1.678621447E0,-1.112817057E1,1.125990624E1
4.355114958E0,-4.744836431E-1,-1.538158902E0,-1.172822938E1,1.183817688E1
4.365046958E0,-4.311418880E-1,-1.560289005E0,-1.199898938E1,1.210768893E1
4.374978958E0,-3.973730481E-1,-1.678387266E0,-1.182088553E1,1.194605474E1
4.384909958E0,-4.214954440E-1,-2.131690174E0,-1.118133813E1,1.139052606E1
4.394841958E0,-4.148835587E-1,-2.604950945E0,-1.025644427E1,1.059020995E1
4.404773958E0,1.447608701E-1,-2.412630029E0,-8.230915559E0,8.578444515E0
4.414705958E0,6.017918170E-1,-1.712164584E0,-6.125530254E0,6.388723021E0
4.424637958E0,1.106129845E-1,-9.861169861E-1,-5.201057977E0,5.294871672E0
4.434569958E0,-1.546775797E0,3.947392429E-1,-5.478794289E0,5.706620830E0
4.444501958E0,-4.541776519E0,1.638068960E0,-6.626390467E0,8.198783720E0
4.454433958E0,-6.972026986E0,2.340135519E0,-5.915095394E0,9.437888962E0
4.464365958E0,-6.603511482E0,2.294579569E0,2.195518380E0,7.327466155E0
4.474296958E0,-4.773554007E0,2.498940049E0,1.305102861E1,1.411952077E1
4.484228958E0,1.388966244E-1,3.281920524E0,2.714378546E1,2.734182480E1
4.494160958E0,5.978458747E0,3.797352291E0,3.939914718E1,4.003067139E1
4.504092958E0,1.193303279E1,3.816195821E0,4.815727986E1,4.976026754E1
4.514024958E0,1.668941878E1,1.580645355E0,5.758822592E1,5.997865373E1
4.523956958E0,2.244738838E1,-3.095905683E0,7.222418560E1,7.569546131E1
4.533888958E0,2.542773291E1,-7.631606360E0,8.616318523E1,9.016044314E1
4.543820958E0,2.373262743E1,-1.017940954E1,8.738021067E1,9.111618517E1
4.553751958E0,1.928516738E1,-9.520447050E0,7.228062760E1,7.541250373E1
4.563683958E0,1.482206369E1,-7.617694080E0,4.849529102E1,5.127880738E1
4.573615958E0,9.831212529E0,-5.604573745E0,2.529052449E1,2.770694165E1
4.583547958E0,4.692921488E0,-2.282389294E0,7.659721527E0,9.268449000E0
4.593479958E0,1.443779140E0,7.057200453E-1,-1.010514055E0,1.898335493E0
4.603411958E0,6.583210534E-1,1.138950193E0,-3.442694981E0,3.685477293E0
4.613343958E0,8.449166684E-1,3.892075577E-1,-4.592535905E0,4.685803319E0
4.623275958E0,-1.621346654E-1,2.333046354E-2,-6.074683451E0,6.076891557E0
4.633207958E0,-2.165851216E0,-7.058320194E-1,-7.313203833E0,7.659768967E0
4.643138958E0,-3.581541209E0,-1.281867546E0,-8.784069761E0,9.572382327E0
4.653070958E0,-4.145610994E0,-1.335541039E0,-1.058920814E1,1.144993841E1
4.663002958E0,-3.766155349E0,-7.232967024E-1,-1.237334333E1,1.295402290E1
4.672934958E0,-2.379979323E0,5.825757833E-1,-1.344648282E1,1.366790387E1
4.682866958E0,-8.062846993E-1,1.795578185E0,-1.350375629E1,1.364645119E1
4.692798958E0,2.115173252E-1,2.109669560E0,-1.337971112E1,1.354666435E1
4.702730958E0,5.394044745E-1,1.974165600E0,-1.354917396E1,1.370286109E1
4.712662958E0,7.067506170E-1,2.900163415E0,-1.396851404E1,1.428390104E1
4.722594958E0,6.347174518E-1,3.369163905E0,-1.392241927E1,1.433833638E1
4.732525958E0,-1.257500298E0,6.675912291E-2,-1.369878316E1,1.375654113E1
4.742457958E0,-3.301806027E0,-2.792807074E0,-1.319426083E1,1.388489155E1
4.752389958E0,-3.521580936E0,-2.426642004E0,-1.264400509E1,1.334769600E1
4.762321958E0,-3.111194690E0,-1.248199132E0,-1.254540116E1,1.298555442E1
4.772253958E0,-2.656654365E0,-5.256680493E-1,-1.244292987E1,1.273423116E1
4.782185958E0,-2.073440943E0,-3.093856819E-1,-1.230869885E1,1.248594987E1
4.792117958E0,-8.267153093E-1,-6.163550019E-2,-1.197796396E1,1.200661808E1
4.802049958E0,7.416644879E-2,3.587560625E-1,-1.122507881E1,1.123105520E1
4.811981958E0,2.624302013E-1,3.424069552E-1,-1.070943274E1,1.071811839E1
4.821913958E0,1.108668633E-2,-2.894200717E-1,-1.069130638E1,1.069522879E1
4.831844958E0,-5.401207584E-1,-1.147450437E0,-1.080049845E1,1.087470182E1
4.841776958E0,-1.136169769E0,-2.028730939E0,-1.100318750E1,1.124618896E1
4.851708958E0,-1.590689556E0,-2.756097377E0,-1.122822929E1,1.167045411E1
4.861640958E0,-1.935503956E0,-3.239512130E0,-1.132246887E1,1.193477757E1
4.871572958E0,-2.133572832E0,-3.401606596E0,-1.097698964E1,1.168834300E1
4.881504958E0,-2.267285936E0,-3.422624413E0,-1.003129840E1,1.083890636E1
4.891436958E0,-2.395275201E0,-3.392935468E0,-8.841360780E0,9.768265702E0
4.901368958E0,-2.266772989E0,-3.280105548E0,-8.014123022E0,8.951174225E0
4.911300958E0,-1.908988734E0,-3.103610559E0,-7.299513747E0,8.158402873E0
4.921232958E0,-1.529499614E0,-2.903551877E0,-6.784062976E0,7.536145768E0
4.931163958E0,-1.154320769E0,-2.716421095E0,-6.541478956E0,7.176513564E0
4.941095958E0,-8.117739192E-1,-2.636664781E0,-6.675608820E0,7.223207818E0
4.951027958E0,-4.950984039E-1,-2.589347066E0,-7.117539040E0,7.590072638E0
4.960959958E0,-2.548465453E-1,-2.472718502E0,-7.681783656E0,8.073975706E0
4.970891958E0,-4.859390695E-2,-2.310643771E0,-8.309431386E0,8.624852808E0
4.980823958E0,1.950255824E-1,-2.148118365E0,-8.920919166E0,9.177976152E0
4.990755958E0,6.548163785E-1,-1.927916317E0,-9.445716711E0,9.662670955E0
5.000687958E0,1.264885039E0,-1.742895357E0,-9.887235872E0,1.011904400E1
5.010619958E0,1.510300720E0,-1.584863829E0,-1.016890677E1,1.040189726E1
5.020550958E0,1.469947769E0,-1.438239780E0,-1.049400846E1,1.069361929E1
5.030482958E0,1.259368922E0,-1.412369359E0,-1.095978713E1,1.112194818E1
5.040414958E0,9.573464193E-1,-1.463572550E0,-1.158148298E1,1.171278382E1
5.050346958E0,7.045892669E-1,-1.497319901E0,-1.226276429E1,1.237391616E1
5.060278958E0,3.649977460E-1,-1.613206599E0,-1.270783915E1,1.281502379E1
5.070210958E0,-2.833792036E-1,-1.980521670E0,-1.277056691E1,1.292633548E1
5.080142958E0,-7.320723499E-1,-2.219427207E0,-1.273013809E1,1.294288232E1
5.090074958E0,-4.520726177E-1,-1.963612837E0,-1.264325665E1,1.280281546E1
5.100006958E0,3.741646087E-1,-1.456144247E0,-1.227486569E1,1.236659545E1
5.109938958E0,1.178245383E0,-1.145235219E0,-1.143472722E1,1.155217783E1
5.119869958E0,2.039118518E0,-7.893574485E-1,-1.029196260E1,1.052167209E1
5.129801958E0,2.522447610E0,-4.578298958E-1,-8.792120792E0,9.158260653E0
5.139733958E0,2.138133660E0,-2.272214115E-1,-7.092761464E0,7.411512012E0
5.149665958E0,8.830063813E-1,4.529799228E-1,-6.016565051E0,6.097864060E0
5.159597958E0,-1.127552654E0,6.692049875E-1,-5.299853117E0,5.459638575E0
5.169529958E0,-3.337042518E0,6.841122445E-1,-3.748182178E0,5.064852610E0
5.179461958E0,-4.231852162E0,1.700310962E0,1.770581923E0,4.892299095E0
5.189393958E0,-4.273021530E0,3.906530625E0,8.746152322E0,1.048879759E1
5.199325958E0,-5.165238519E0,6.518059103E0,1.546604678E1,1.756027866E1
5.209256958E0,-5.212930748E0,8.926857598E0,2.413700450E1,2.625754024E1
5.219188958E0,-5.123868883E0,1.195395296E1,2.998534048E1,3.268442545E1
5.229120958E0,-1.826379271E0,1.514968552E1,3.710859166E1,4.012351191E1
5.239052833E0,6.931212836E0,1.054826945E1,4.778594424E1,4.942473234E1
5.248984833E0,1.517931102E1,3.110644175E0,6.489025221E1,6.671455930E1
5.258916833E0,1.840262023E1,-1.623407798E0,7.885888086E1,8.099391937E1
5.268848833E0,1.593516071E1,-5.455570318E0,7.325562508E1,7.516700872E1
5.278780833E0,1.209500066E1,-4.988343288E0,5.495661869E1,5.649249992E1
5.288712833E0,1.008327664E1,-2.466523962E0,3.837700009E1,3.975613593E1
5.298644833E0,7.399858984E0,-1.396097581E0,2.688233540E1,2.791714451E1
5.308575833E0,3.724279929E0,-1.589317507E0,1.924442047E1,1.966580562E1
5.318507833E0,1.695791796E0,-2.058840299E0,1.244605579E1,1.272866207E1
5.328439833E0,2.756475399E-1,-1.598622327E0,6.222236769E0,6.430225915E0
5.338371833E0,-9.247813019E-1,-8.388930130E-1,1.897227936E0,2.271219009E0
5.348303833E0,-1.465012865E0,-4.338065372E-1,-1.041317187E0,1.848997645E0
5.358235833E0,-1.657075481E0,-2.689546707E-1,-3.562999104E0,3.938679776E0
5.368167833E0,-1.951353419E0,-4.627075700E-1,-5.613407718E0,5.960891265E0
5.378099833E0,-2.190278398E0,-7.728059544E-1,-7.527472712E0,7.877651549E0
5.388031833E0,-2.348484173E0,-1.026074227E0,-9.055265377E0,9.410953048E0
5.397962833E0,-2.546154853E0,-1.227796442E0,-1.017870671E1,1.056392251E1
5.407894833E0,-2.959913188E0,-1.462697952E0,-1.088976789E1,1.137926255E1
5.417826833E0,-3.672219245E0,-1.688238655E0,-1.120516554E1,1.191180417E1
5.427758833E0,-4.449738421E0,-1.526272974E0,-1.150765954E1,1.243205170E1
5.437690833E0,-4.986126024E0,-1.186652802E0,-1.205603248E1,1.310028689E1
5.447622833E0,-4.885627590E0,-8.200016825E-1,-1.252741161E1,1.347136969E1
5.457554833E0,-4.386116329E0,-6.839464760E-1,-1.277728887E1,1.352645223E1
5.467486833E0,-3.792589442E0,-7.574398372E-1,-1.268801826E1,1.326436041E1
5.477418833E0,-2.813591879E0,-7.394334827E-1,-1.255369134E1,1.288635819E1
5.487350833E0,-1.936299031E0,-3.786111604E-1,-1.245300112E1,1.260832412E1
5.497281833E0,-1.398948684E0,7.671152249E-2,-1.218013846E1,1.226045329E1
5.507213833E0,-8.717729299E-1,3.043424584E-1,-1.191386444E1,1.194959323E1
5.517145833E0,-4.059411925E-1,2.940063353E-1,-1.152800318E1,1.153889445E1
5.527077833E0,-3.171554621E-1,-1.181926936E-2,-1.082712667E1,1.083177729E1
5.537009833E0,-5.022136979E-1,-4.342763610E-1,-9.989703648E0,1.001174278E1
5.546941833E0,-6.940959267E-1,-8.512018405E-1,-9.364898250E0,9.429084418E0
5.556873833E0,-8.780996172E-1,-1.193398004E0,-9.238313633E0,9.356371974E0
5.566805833E0,-1.121080152E0,-1.441177421E0,-9.827808280E0,9.995980625E0
5.576737833E0,-1.229448719E0,-1.464395107E0,-1.098981960E1,1.115491515E1
5.586669833E0,-1.245485293E0,-1.468099903E0,-1.182090541E1,1.197665878E1
5.596600833E0,-1.220589164E0,-1.567738796E0,-1.170893591E1,1.187631352E1
5.606532833E0,-1.297496861E0,-1.691269851E0,-1.090028820E1,1.110676257E1
5.616464833E0,-1.442936702E0,-1.923859665E0,-9.895886242E0,1.018390234E1
5.626396833E0,-1.475367699E0,-2.202615877E0,-9.032303946E0,9.413327845E0
5.636328833E0,-1.468200036E0,-2.319830916E0,-8.228633391E0,8.674539429E0
5.646260833E0,-1.530079511E0,-2.366869866E0,-7.506912732E0,8.018538211E0
5.656192833E0,-1.585158236E0,-2.455972661E0,-7.079785908E0,7.659497167E0
5.666124833E0,-1.567946957E0,-2.591598828E0,-6.924154662E0,7.557695411E0
5.676056833E0,-1.523889795E0,-2.692124745E0,-6.935141580E0,7.593810933E0
5.685988833E0,-1.359613879E0,-2.685086159E0,-7.253310803E0,7.852945638E0
5.695920833E0,-1.116375190E0,-2.585772955E0,-7.763155264E0,8.258274335E0
5.705851833E0,-6.919260250E-1,-2.394349148E0,-8.428256748E0,8.789037563E0
5.715783833E0,-1.650582001E-1,-2.144744376E0,-9.093325489E0,9.344289223E0
5.725715833E0,1.608359257E-1,-1.988667279E0,-9.573128124E0,9.778826506E0
5.735647833E0,2.398177759E-1,-1.914707603E0,-9.939162655E0,1.012475047E1
5.745579833E0,1.766610860E-1,-1.869404107E0,-1.032522507E1,1.049457734E1
5.755511833E0,1.862171905E-1,-1.798360875E0,-1.058125476E1,1.073460437E1
5.765443833E0,2.486903774E-1,-1.703973805E0,-1.061071771E1,1.074954436E1
5.775375833E0,3.068303390E-1,-1.717669884E0,-1.039674236E1,1.054214335E1
5.785307833E0,3.502109781E-1,-1.875246499E0,-1.036165439E1,1.053579987E1
5.795239833E0,4.178154622E-1,-1.819934177E0,-1.059610435E1,1.075937533E1
5.805170833E0,7.266646986E-1,-1.395901700E0,-1.085917877E1,1.097261804E1
5.815102833E0,1.307375732E0,-8.509974803E-1,-1.118690117E1,1.129513992E1
5.825034833E0,1.936500468E0,-4.921281280E-1,-1.124990492E1,1.142596101E1
5.834966833E0,2.271999961E0,-3.520378310E-1,-1.126607364E1,1.149827508E1
5.844898833E0,2.193137102E0,-3.240083257E-1,-1.143630246E1,1.164919936E1
5.854830833E0,2.029451462E0,-4.340144788E-1,-1.153108466E1,1.171635418E1
5.864762833E0,1.883361557E0,-5.769115124E-1,-1.144638423E1,1.161462826E1
5.874694833E0,1.779393531E0,-8.226675012E-1,-1.002792690E1,1.021774638E1
5.884626833E0,8.160384397E-1,-9.889824142E-1,-6.990926356E0,7.107535175E0
5.894558833E0,-1.970449987E0,-5.107960948E-1,-2.793755200E0,3.456682502E0
5.904490833E0,-6.548428372E0,4.246220233E-1,1.809616765E0,6.807123536E0
5.914421833E0,-1.038458132E1,2.157273058E0,7.011295132E0,1.271422887E1
5.924353833E0,-9.457268470E0,5.780846831E0,1.420206119E1,1.801545612E1
5.934285833E0,-4.122966774E0,9.940982308E0,2.482632339E1,2.705860894E1
5.944217833E0,5.325932723E-1,1.348296476E1,3.852159237E1,4.081650491E1
5.954149833E0,2.029619131E0,1.381042171E1,4.720722426E1,4.922772718E1
5.964081833E0,5.290649015E0,8.296824204E0,5.017879797E1,5.113452869E1
5.974013833E0,1.038891411E1,1.970570147E0,5.757281734E1,5.853581792E1
5.983945833E0,1.439473046E1,-1.655614408E0,6.447013211E1,6.607834182E1
5.993877833E0,1.432969422E1,-4.108771196E0,5.866349145E1,6.052790569E1
6.003809833E0,1.065218616E1,-3.723876764E0,4.548140687E1,4.686037450E1
6.013740833E0,7.288559573E0,-2.443913364E0,3.512331226E1,3.595473372E1
6.023672833E0,4.982331766E0,-2.829334338E0,2.860002984E1,2.916831276E1
6.033604833E0,3.247837104E0,-3.037671801E0,2.389840302E1,2.430863144E1
6.043536833E0,2.609796533E0,-2.836717325E0,1.908264205E1,1.946805668E1
6.053468833E0,2.713584611E0,-2.901060086E0,1.342703381E1,1.400231866E1
6.063400833E0,1.864326531E0,-2.911402348E0,7.140094675E0,7.933027733E0
6.073332833E0,4.394220570E-1,-2.668568944E0,1.558159595E0,3.121251877E0
6.083264833E0,-2.485530044E-1,-1.908801038E0,-2.571201986E0,3.211912149E0
6.093196833E0,6.621664748E-2,-9.379077163E-1,-5.528158237E0,5.607547505E0
6.103128833E0,8.809665070E-1,-2.773032156E-1,-7.787363321E0,7.841940229E0
6.113059833E0,1.614928458E0,-1.923505177E-1,-9.155993022E0,9.299311849E0
6.122991833E0,1.537364704E0,-6.783197735E-1,-9.747342407E0,9.891121875E0
6.132923833E0,6.121460299E-1,-1.524606664E0,-9.859749280E0,9.995689276E0
6.142855833E0,-6.365840292E-1,-2.248778329E0,-9.446599056E0,9.731417004E0
6.152787833E0,-1.847819110E0,-2.427367936E0,-8.927513071E0,9.434354254E0
6.162719833E0,-2.819615096E0,-2.143568062E0,-8.928200703E0,9.605096622E0
6.172651833E0,-3.277202990E0,-1.503275582E0,-9.392098328E0,1.006038806E1
6.182583833E0,-3.152387155E0,-8.096911409E-1,-1.034702466E1,1.084684580E1
6.192515833E0,-2.685486985E0,-3.433289149E-1,-1.153309376E1,1.184660149E1
6.202447833E0,-2.148599737E0,-1.082886797E-1,-1.283370982E1,1.301277507E1
6.212379833E0,-1.768821911E0,-1.964255154E-2,-1.378492083E1,1.389795521E1
6.222310833E0,-1.663467072E0,7.492863335E-2,-1.406900663E1,1.416720454E1
6.232242833E0,-1.706283747E0,3.766893268E-2,-1.370703124E1,1.381287546E1
6.242174958E0,-1.799454597E0,-5.022451267E-2,-1.273630690E1,1.286289520E1
6.252106958E0,-1.787806797E0,-1.286328971E-1,-1.169663921E1,1.183318083E1
6.262038958E0,-1.520918679E0,-1.224980716E-1,-1.077394391E1,1.088145517E1
6.271970958E0,-1.150561156E0,-3.524613887E-2,-1.010580947E1,1.017115619E1
6.281902958E0,-8.952948166E-1,-2.094852716E-2,-9.524072909E0,9.566083651E0
6.291834958E0,-7.653047808E-1,-7.363215946E-2,-8.984772515E0,9.017607789E0
6.301766958E0,-7.014492390E-1,-2.904781985E-1,-8.664389536E0,8.697589013E0
6.311698958E0,-6.313580802E-1,-5.703033913E-1,-8.448149561E0,8.490882756E0
6.321630958E0,-7.542530315E-1,-8.394509836E-1,-8.035385837E0,8.114246800E0
6.331561958E0,-9.195142031E-1,-1.000306424E0,-7.642044225E0,7.761891473E0
6.341493958E0,-9.574817093E-1,-1.076969049E0,-7.383457544E0,7.522770691E0
6.351425958E0,-1.014510334E0,-1.097373859E0,-7.225838830E0,7.378767336E0
6.361357958E0,-1.153656160E0,-1.084627659E0,-7.089964156E0,7.264635671E0
6.371289958E0,-1.291590588E0,-1.044021963E0,-7.060339823E0,7.253039812E0
6.381221958E0,-1.370604891E0,-9.943108356E-1,-7.293506318E0,7.487485974E0
6.391153958E0,-1.357486808E0,-9.651798610E-1,-7.718478443E0,7.896154259E0
6.401085958E0,-1.328674946E0,-9.196033732E-1,-8.072727326E0,8.232859403E0
6.411017958E0,-1.213578060E0,-8.376898753E-1,-8.296958106E0,8.426981063E0
6.420949958E0,-9.110689234E-1,-7.206455749E-1,-8.485504498E0,8.564646123E0
6.430881958E0,-5.988715348E-1,-5.980568349E-1,-8.662211448E0,8.703460591E0
6.440813958E0,-3.979708529E-1,-4.596764465E-1,-8.892845514E0,8.913606709E0
6.450744958E0,-3.810491569E-1,-4.114094355E-1,-9.135592087E0,9.152786404E0
6.460676958E0,-4.556812634E-1,-4.825118702E-1,-9.389182321E0,9.412608979E0
6.470608958E0,-5.974228871E-1,-7.020849775E-1,-9.818609440E0,9.861791357E0
6.480540958E0,-9.673085399E-1,-1.091648338E0,-1.055636199E1,1.065664865E1
6.490472958E0,-1.352979775E0,-1.444437098E0,-1.132264078E1,1.149430933E1
6.500404958E0,-1.592579230E0,-1.687625136E0,-1.201691226E1,1.223889568E1
6.510336958E0,-1.759523669E0,-1.739282801E0,-1.260199870E1,1.284256202E1
6.520268958E0,-1.809317534E0,-1.417704797E0,-1.305135839E1,1.325222520E1
6.530200958E0,-1.800512943E0,-1.010624567E0,-1.315424483E1,1.331530570E1
6.540132958E0,-1.588708958E0,-6.480106580E-1,-1.288666103E1,1.300038256E1
6.550064958E0,-8.468672995E-1,-5.554255530E-1,-1.263080442E1,1.267134176E1
6.559996958E0,-5.107509251E-1,-8.137863846E-1,-1.300503558E1,1.304047795E1
6.569927958E0,-6.200396249E-1,-6.815480943E-1,-1.322723211E1,1.325928453E1
6.579859958E0,-6.521031243E-1,-1.515721089E-1,-1.297209353E1,1.298935808E1
6.589791958E0,-1.982573019E-1,3.932571930E-1,-1.162582826E1,1.163416692E1
6.599723958E0,-5.233927515E-1,6.801606962E-1,-8.723912437E0,8.766025710E0
6.609655958E0,-1.086595394E0,3.337745646E-1,-6.498698972E0,6.597361847E0
6.619587958E0,-1.522392177E0,-7.560555819E-2,-1.894224222E0,2.431353439E0
6.629519958E0,-3.661948611E0,-2.044231908E-1,3.919201541E0,5.367662171E0
6.639451958E0,-6.930119991E0,8.304260986E-1,9.082415754E0,1.145453825E1
6.649383958E0,-7.161536415E0,3.345164885E0,1.159406853E1,1.403211163E1
6.659315958E0,-3.844477633E0,6.233434187E0,1.340252930E1,1.527296636E1
6.669247958E0,-3.663395723E-1,7.468607038E0,1.821480649E1,1.968993325E1
6.679178958E0,2.227236309E0,6.646298482E0,2.785806027E1,2.872638834E1
6.689110958E0,3.621460443E0,3.790463686E0,3.738802542E1,3.775376849E1
6.699042958E0,5.636349853E0,1.901981577E-1,4.241882242E1,4.279206831E1
6.708974958E0,6.651634067E0,-2.950802934E0,4.456715961E1,4.515731602E1
6.718906958E0,7.300097884E0,-5.435924258E0,4.897583859E1,4.981439017E1
6.728838958E0,8.487613589E0,-7.389954970E0,5.372692117E1,5.489292374E1
6.738770958E0,9.278549493E0,-7.939690306E0,5.142568630E1,5.285576008E1
6.748702958E0,8.280391774E0,-6.827230046E0,4.429875838E1,4.558021448E1
6.758634958E0,6.898285995E0,-5.069178706E0,3.579758510E1,3.680692899E1
6.768566958E0,5.261219394E0,-3.727992034E0,3.063662441E1,3.130784421E1
6.778498958E0,4.580881820E0,-3.357512158E0,2.615116213E1,2.676080430E1
6.788429958E0,4.663112968E0,-2.374734663E0,1.973010775E1,2.041227912E1
6.798361958E0,5.075693673E0,-4.567233103E-1,1.251858933E1,1.351615113E1
6.808293958E0,5.006255064E0,8.630158474E-1,4.810552849E0,6.996342247E0
6.818225958E0,3.977033720E0,1.177532753E0,-2.819928507E0,5.015513670E0
6.828157958E0,2.290057040E0,6.443520552E-1,-7.807034524E0,8.161454459E0
6.838089958E0,9.338253365E-1,-6.128612906E-1,-1.002462088E1,1.008665715E1
6.848021958E0,3.364922042E-1,-2.116149445E0,-1.052555185E1,1.074144111E1
6.857953958E0,4.821450305E-1,-3.385371217E0,-1.004263732E1,1.060885321E1
6.867885958E0,6.925133778E-1,-4.500107506E0,-9.376695008E0,1.042367265E1
6.877817958E0,5.265739292E-1,-5.475529203E0,-8.733587825E0,1.032154332E1
6.887749958E0,7.621085465E-2,-6.134617411E0,-8.210171392E0,1.024920744E1
6.897681958E0,-5.678054242E-1,-6.236251960E0,-7.896954761E0,1.007844909E1
6.907613958E0,-8.810426670E-1,-5.831677262E0,-8.108952581E0,1.002695406E1
6.917544958E0,-7.545195915E-1,-4.845812144E0,-8.996510800E0,1.024638481E1
6.927476958E0,-8.082246593E-1,-3.897610990E0,-9.910892537E0,1.068037403E1
6.937408958E0,-1.058634008E0,-3.467510564E0,-1.099914240E1,1.158125507E1
6.947340958E0,-1.383801033E0,-3.229837620E0,-1.221364768E1,1.270904977E1
6.957272958E0,-1.664162014E0,-2.969843222E0,-1.302571484E1,1.346323331E1
6.967204958E0,-1.739226229E0,-2.723423428E0,-1.314151778E1,1.353297574E1
6.977136958E0,-1.713878257E0,-2.564782328E0,-1.279711677E1,1.316365013E1
6.987068958E0,-1.595067220E0,-2.412389855E0,-1.243972677E1,1.277147863E1
6.997000958E0,-1.362431945E0,-2.236974555E0,-1.210713948E1,1.238721528E1
7.006932958E0,-1.059694840E0,-2.022075054E0,-1.175842557E1,1.197799285E1
7.016864958E0,-7.189788991E-1,-1.707021227E0,-1.149080319E1,1.163913270E1
7.026796958E0,-4.486049264E-1,-1.403047728E0,-1.137031546E1,1.146533310E1
7.036727958E0,-2.224890772E-1,-1.191726577E0,-1.140258976E1,1.146685514E1
7.046659958E0,-9.617492996E-2,-1.158288397E0,-1.143603583E1,1.149494659E1
7.056591958E0,-6.160215279E-2,-1.204141093E0,-1.131142231E1,1.137550110E1
7.066523958E0,-1.467361783E-1,-1.197873024E0,-1.110355847E1,1.116894990E1
7.076455958E0,-2.171724781E-1,-1.096464324E0,-1.087430785E1,1.093160415E1
7.086387958E0,-2.251180219E-1,-1.017034431E0,-1.052627222E1,1.057768614E1
7.096319958E0,-1.315137655E-1,-9.320119688E-1,-1.001132665E1,1.005547629E1
7.106251958E0,-7.401306444E-2,-9.031153214E-1,-9.401755005E0,9.445321190E0
7.116183958E0,-6.028276512E-2,-9.454808839E-1,-8.887800536E0,8.938152297E0
7.126115958E0,-1.419339606E-1,-9.332669275E-1,-8.428377201E0,8.481077446E0
7.136047958E0,-1.684280602E-1,-8.219999684E-1,-8.083746403E0,8.127177116E0
7.145979958E0,-1.352534527E-1,-7.226801866E-1,-7.875363332E0,7.909608572E0
7.155911958E0,-3.410132714E-2,-6.622186612E-1,-7.770462529E0,7.798704019E0
7.165843958E0,1.212623996E-1,-6.055141179E-1,-7.706869966E0,7.731571418E0
7.175774958E0,2.158392581E-1,-6.211277917E-1,-7.764459193E0,7.792253389E0
7.185706958E0,3.148910547E-1,-6.318080235E-1,-8.040705634E0,8.071634583E0
7.195638958E0,4.859613254E-1,-6.165963458E-1,-8.376793064E0,8.413501739E0
7.205570958E0,7.133841370E-1,-5.438425112E-1,-8.728282061E0,8.774257196E0
7.215502958E0,9.324103834E-1,-3.678252402E-1,-9.091033965E0,9.146123937E0
7.225434958E0,1.159505861E0,-1.928543285E-1,-9.414791372E0,9.487884022E0
7.235366083E0,1.383050981E0,-1.949167876E-1,-9.808458089E0,9.907404941E0
7.245298083E0,1.398217051E0,-4.391506000E-1,-1.012929072E1,1.023476402E1
7.255230083E0,1.206387301E0,-6.203047961E-1,-1.020023616E1,1.029004208E1
7.265162083E0,1.051029339E0,-6.976973730E-1,-1.035504704E1,1.043160790E1
7.275094083E0,9.967347258E-1,-6.863720472E-1,-1.054700411E1,1.061620848E1
7.285026083E0,8.620463059E-1,-6.994549730E-1,-1.035857993E1,1.041789514E1
7.294958083E0,5.645569670E-1,-1.055822375E0,-9.838984648E0,9.911564173E0
7.304889083E0,2.174584617E-1,-1.693391952E0,-8.933313509E0,9.094996137E0
7.314821083E0,-1.306615429E-1,-2.127819610E0,-7.488053123E0,7.785603914E0
7.324753083E0,-6.744235544E-1,-2.429478050E0,-5.736800340E0,6.266425526E0
7.334685083E0,-1.572014573E0,-2.555632020E0,-4.417819932E0,5.340376184E0
7.344617083E0,-3.055937333E0,-2.325605919E0,-2.975660325E0,4.858163258E0
7.354549083E0,-5.586788269E0,-1.539665144E0,-5.611274654E-1,5.822167633E0
7.364481083E0,-7.588274984E0,-1.235746901E-1,1.187658961E0,7.681648374E0
7.374413083E0,-7.297932660E0,2.141261335E0,3.192519520E0,8.248454528E0
7.384345083E0,-3.953895118E0,6.044853880E0,1.063264945E1,1.285405692E1
7.394277083E0,1.520117756E0,9.806462435E0,2.527773780E1,2.715587398E1
7.404209083E0,4.917260442E0,9.145931718E0,3.875688199E1,4.012385100E1
7.414141083E0,4.736558674E0,4.649628119E0,5.108693137E1,5.151629438E1
7.424073083E0,4.422337491E0,8.714136916E-1,6.159990234E1,6.176458856E1
7.434004083E0,5.812361569E0,-1.292892179E0,6.886370188E1,6.912065215E1
7.443936083E0,7.219778776E0,-2.572109766E0,7.195103642E1,7.235808591E1
7.453868083E0,6.668828974E0,-3.428558460E0,6.691124173E1,6.733010146E1
7.463800083E0,4.890032882E0,-3.560478661E0,5.408916787E1,5.442634942E1
7.473732083E0,3.209165958E0,-2.444069046E0,3.935237881E1,3.955858867E1
7.483664083E0,2.515794648E0,-5.157134570E-1,2.552469846E1,2.565356534E1
7.493596083E0,2.098273045E0,1.832504375E0,1.403201481E1,1.430588206E1
7.503528083E0,1.591198410E0,3.655798509E0,5.824258314E0,7.058240576E0
7.513460083E0,1.401017282E0,4.523394627E0,3.933650011E-1,4.751703315E0
7.523392083E0,1.725667121E0,4.644488124E0,-3.358819011E0,5.985888580E0
7.533324083E0,2.125645030E0,4.150414481E0,-5.709197389E0,7.371515583E0
7.543256083E0,2.439498716E0,3.020609626E0,-7.349320915E0,8.311904379E0
7.553188083E0,2.573674774E0,1.611118997E0,-8.891883647E0,9.396015169E0
7.563120083E0,2.505667562E0,3.205069399E-1,-9.997584525E0,1.031177923E1
7.573051083E0,2.335194914E0,-7.401985909E-1,-1.037989303E1,1.066504611E1
7.582983083E0,1.801742612E0,-1.530358862E0,-1.016351915E1,1.043481654E1
7.592915083E0,1.131972857E0,-2.227160003E0,-1.023537558E1,1.053586814E1
7.602847083E0,5.466148223E-1,-2.886493210E0,-1.056223143E1,1.096318218E1
7.612779083E0,-3.907081725E-1,-3.188814139E0,-1.123376894E1,1.168412398E1
7.622711083E0,-1.317408384E0,-3.130277663E0,-1.218548983E1,1.264991563E1
7.632643083E0,-1.631873543E0,-2.966410907E0,-1.284731980E1,1.328594110E1
7.642575083E0,-1.431251919E0,-2.972377113E0,-1.327314913E1,1.367698781E1
7.652507083E0,-9.602543858E-1,-3.068566149E0,-1.353965118E1,1.391618988E1
7.662439083E0,-4.543174734E-1,-3.180096233E0,-1.371438470E1,1.408558710E1
7.672371083E0,-4.107651454E-1,-3.302068275E0,-1.365039745E1,1.405011506E1
7.682303083E0,-5.713794617E-1,-3.289370169E0,-1.347017457E1,1.387775318E1
7.692235083E0,-6.222807164E-1,-3.171483577E0,-1.326714287E1,1.365513168E1
7.702167083E0,-5.414287806E-1,-3.062707532E0,-1.305470183E1,1.342008056E1
7.712098083E0,-4.184774767E-1,-3.051318617E0,-1.271956983E1,1.308713587E1
7.722030083E0,-2.985021498E-1,-3.048760461E0,-1.246865762E1,1.283944963E1
7.731962083E0,-2.905274978E-1,-2.947665610E0,-1.234777579E1,1.269805914E1
7.741894083E0,-2.215267169E-1,-2.690964365E0,-1.232387822E1,1.261619347E1
7.751826083E0,-3.301544437E-2,-2.419861135E0,-1.234494808E1,1.257992691E1
7.761758083E0,5.121155921E-3,-2.243338957E0,-1.239851091E1,1.259982813E1
7.771690083E0,-1.442445244E-1,-2.233219619E0,-1.234294950E1,1.254418107E1
7.781622083E0,-2.657788835E-1,-2.246594832E0,-1.207818875E1,1.228822486E1
7.791554083E0,-3.664690882E-1,-2.253865845E0,-1.156814314E1,1.179135898E1
7.801486083E0,-4.695870751E-1,-2.282129093E0,-1.092517863E1,1.117086180E1
7.811418083E0,-4.955864637E-1,-2.344675735E0,-1.025017606E1,1.052659581E1
7.821350083E0,-4.636831049E-1,-2.439309412E0,-9.571790866E0,9.888600145E0
7.831282083E0,-3.877344979E-1,-2.443268416E0,-8.873319322E0,9.211715062E0
7.841214083E0,-2.961619113E-1,-2.418835825E0,-8.330015339E0,8.679149393E0
7.851146083E0,-2.060621288E-1,-2.420373204E0,-7.951134476E0,8.313916496E0
7.861078083E0,-5.455839582E-2,-2.355794216E0,-7.739531343E0,8.090308302E0
7.871009083E0,1.802911471E-1,-2.223646996E0,-7.798544367E0,8.111375044E0
7.880941083E0,3.131342588E-1,-2.243242331E0,-8.006508193E0,8.320718879E0
7.890873083E0,3.272001380E-1,-2.325182142E0,-8.350957727E0,8.674792613E0
7.900805083E0,3.657058803E-1,-2.322092034E0,-8.689716750E0,9.002056954E0
7.910737083E0,4.239690354E-1,-2.286360430E0,-8.998067914E0,9.293676341E0
7.920669083E0,4.738425690E-1,-2.318468222E0,-9.313000703E0,9.608943947E0
7.930601083E0,5.368957997E-1,-2.334097391E0,-9.623800680E0,9.917348802E0
7.940533083E0,5.161674202E-1,-2.315306925E0,-9.943627589E0,1.022266133E1
7.950465083E0,2.352481037E-1,-2.387672797E0,-1.027194056E1,1.054841628E1
7.960397083E0,-8.899703421E-2,-2.443301745E0,-1.072790761E1,1.100298348E1
7.970329083E0,-2.360238831E-1,-2.428426867E0,-1.117241528E1,1.143572593E1
7.980261083E0,-2.305146365E-1,-2.373643426E0,-1.160349775E1,1.184603225E1
7.990193083E0,-6.474943489E-2,-2.170763170E0,-1.205349245E1,1.224757467E1
8.000125083E0,8.475787595E-2,-2.050586370E0,-1.183281151E1,1.200947612E1
8.010057083E0,-1.093636172E-1,-2.161187038E0,-1.040626631E1,1.062887898E1
8.019988083E0,-4.497659276E-1,-2.255212020E0,-8.410749600E0,8.719459816E0
8.029920083E0,-6.479748438E-1,-2.157260487E0,-6.706287991E0,7.074457070E0
8.039852083E0,-8.548818588E-1,-2.048274088E0,-5.392787594E0,5.831672810E0
8.049784083E0,-1.486069566E0,-1.637909477E0,-3.195252509E0,3.885973340E0
8.059716083E0,-2.840313362E0,-8.431323905E-1,-4.483457851E-1,2.996542369E0
8.069648083E0,-4.949877380E0,1.188918013E-1,2.031053161E0,5.351691161E0
8.079580083E0,-6.176413894E0,1.986786230E0,3.999193790E0,7.621611318E0
8.089512083E0,-4.906047236E0,4.932229314E0,8.685136042E0,1.112779284E1
8.099444083E0,-1.412801761E0,6.399996802E0,2.076939654E1,2.177897611E1
8.109376083E0,2.503017020E0,5.921449564E0,3.474820168E1,3.533788589E1
8.119308083E0,7.034237267E0,6.188228193E0,4.509988306E1,4.606271935E1
8.129240083E0,1.106738642E1,6.640097510E0,5.271284557E1,5.426989981E1
8.139172083E0,1.525954652E1,6.259105802E0,6.071048471E1,6.291099363E1
8.149104083E0,1.963327084E1,4.543564597E0,7.088137018E1,7.369041961E1
8.159035083E0,2.071576354E1,2.347666148E0,7.467168038E1,7.752750638E1
8.168967083E0,1.752327618E1,7.675965238E-1,6.489380264E1,6.722246673E1
8.178899083E0,1.302363674E1,1.421601967E0,4.802505326E1,4.977993378E1
8.188831083E0,1.004164446E1,3.204468305E0,3.066015360E1,3.242141668E1
8.198763083E0,7.176054466E0,5.330146372E0,1.570477457E1,1.807058832E1
8.208695083E0,4.437602817E0,6.819083705E0,5.027764047E0,9.564028055E0
8.218627083E0,2.278097145E0,6.580081104E0,-1.244949980E0,7.073690295E0
8.228559083E0,8.283285561E-1,4.554731317E0,-2.529348786E0,5.275349358E0
8.238491917E0,-4.669865625E-1,1.148233818E0,-5.686002070E-1,1.363753476E0
8.248423917E0,-1.745364051E0,-1.925463848E0,1.582290469E0,3.042589330E0
8.258355917E0,-2.650580862E0,-3.737888447E0,1.973535855E0,4.989211633E0
8.268287917E0,-3.012118884E0,-4.171818506E0,-4.181004775E-1,5.162532114E0
8.278219917E0,-3.202566791E0,-3.670574423E0,-4.126453761E0,6.384134341E0
8.288151917E0,-3.172885739E0,-3.261664014E0,-7.837278078E0,9.062482205E0
8.298083917E0,-2.650610683E0,-2.738962696E0,-1.089351479E1,1.154107092E1
8.308014917E0,-2.152136133E0,-2.246186843E0,-1.322666142E1,1.358755378E1
8.317946917E0,-2.082655424E0,-1.970934575E0,-1.480771813E1,1.508278996E1
8.327878917E0,-2.424899096E0,-1.792824001E0,-1.566595724E1,1.595357545E1
8.337810917E0,-2.912433797E0,-1.811240683E0,-1.603200931E1,1.639476093E1
8.347742917E0,-3.077576124E0,-2.064304961E0,-1.594240541E1,1.636744085E1
8.357674917E0,-2.854473857E0,-2.368243230E0,-1.556300414E1,1.599886543E1
8.367606917E0,-2.411643896E0,-2.399205991E0,-1.496325874E1,1.534507504E1
8.377538917E0,-2.170486158E0,-2.255481138E0,-1.414124430E1,1.448354224E1
8.387470917E0,-2.007529959E0,-2.219817947E0,-1.322730462E1,1.356168705E1
8.397402917E0,-1.940077648E0,-2.300327382E0,-1.239400622E1,1.275408944E1
8.407334917E0,-1.902493500E0,-2.259197921E0,-1.168778185E1,1.205519396E1
8.417266917E0,-1.463438356E0,-1.918238736E0,-1.111768768E1,1.137647885E1
8.427198917E0,-7.605264361E-1,-1.454892504E0,-1.062886513E1,1.075490059E1
8.437130917E0,-2.832579835E-1,-1.169306452E0,-1.019202433E1,1.026279068E1
8.447062917E0,-4.867565833E-2,-9.956318678E-1,-9.975968539E0,1.002564713E1
8.456994917E0,-7.544413850E-2,-1.010498706E0,-9.846051593E0,9.898056952E0
8.466926917E0,-3.526608519E-1,-1.243706278E0,-9.562581502E0,9.649566827E0
8.476857917E0,-5.668176102E-1,-1.599007074E0,-9.122898951E0,9.279299063E0
8.486789917E0,-7.930155397E-1,-2.010480756E0,-8.648533641E0,8.914484879E0
8.496721917E0,-1.043049205E0,-2.315069821E0,-8.203751149E0,8.587725708E0
8.506653917E0,-1.147451387E0,-2.338085192E0,-8.025804589E0,8.437821186E0
8.516585917E0,-1.300885907E0,-2.290762507E0,-7.980737175E0,8.404288361E0
8.526517917E0,-1.549394765E0,-2.295242205E0,-8.156810287E0,8.614076559E0
8.536449917E0,-1.650537709E0,-2.266458847E0,-8.754144881E0,9.192179449E0
8.546381917E0,-1.531677848E0,-2.100519399E0,-9.265072830E0,9.622878640E0
8.556313917E0,-1.330786521E0,-1.899699847E0,-9.459533097E0,9.739744282E0
8.566245917E0,-1.036024580E0,-1.734579008E0,-9.441003270E0,9.654773639E0
8.576177917E0,-5.396724962E-1,-1.623952904E0,-9.511786155E0,9.664499226E0
8.586109917E0,-3.248815343E-2,-1.571521506E0,-9.631654075E0,9.759072474E0
8.596041917E0,3.758770023E-1,-1.605179395E0,-9.855991859E0,9.992920491E0
8.605973917E0,5.044240185E-1,-1.650273561E0,-1.007553843E1,1.022224639E1
8.615905917E0,4.680302905E-1,-1.734254634E0,-1.030938028E1,1.046470321E1
8.625837917E0,4.121222842E-1,-1.911383461E0,-1.057577826E1,1.075501359E1
8.635769917E0,2.457381548E-1,-2.156758650E0,-1.106375764E1,1.127469415E1
8.645700917E0,5.771011814E-2,-2.363910151E0,-1.172662140E1,1.196265234E1
8.655632917E0,-7.634117447E-2,-2.430714736E0,-1.237364037E1,1.261035995E1
8.665564917E0,-2.053350641E-1,-2.461259129E0,-1.285159879E1,1.308677005E1
8.675496917E0,-8.848609719E-2,-2.640498801E0,-1.305469247E1,1.331934905E1
8.685428917E0,3.051990389E-1,-2.715922912E0,-1.299090987E1,1.327528241E1
8.695360917E0,7.325040936E-1,-2.541412469E0,-1.266115615E1,1.293445842E1
8.705292917E0,1.174860576E0,-2.209904577E0,-1.239839397E1,1.264848405E1
8.715224917E0,1.658637564E0,-1.843619055E0,-1.189509722E1,1.215085790E1
8.725156917E0,1.792078188E0,-1.665677466E0,-1.095821774E1,1.122802572E1
8.735088917E0,1.417555109E0,-2.070145745E0,-1.014625232E1,1.045186118E1
8.745020917E0,6.083045189E-1,-2.958022783E0,-9.138105220E0,9.624183092E0
8.754952917E0,-1.389256047E-1,-3.686758639E0,-7.834268516E0,8.659518044E0
8.764884917E0,-8.225398126E-1,-3.727618982E0,-5.105481729E0,6.374767345E0
8.774816917E0,-2.183137925E0,-3.196603800E0,2.362380373E-1,3.878166508E0
8.784748917E0,-4.502454286E0,-3.239684916E0,5.573903344E0,7.863590238E0
8.794680917E0,-5.921295197E0,-2.630380486E0,8.504415563E0,1.069138543E1
8.804611917E0,-5.940293385E0,3.126417770E-1,1.202810150E1,1.341864583E1
8.814543917E0,-6.241403357E0,4.888154756E0,1.620179491E1,1.803738704E1
8.824475917E0,-6.472955436E0,9.545626330E0,2.014577929E1,2.321358562E1
8.834407917E0,-7.560289040E0,1.366366361E1,2.616221804E1,3.046826753E1
8.844339917E0,-8.237776097E0,1.595147795E1,3.249970168E1,3.712871144E1
8.854271917E0,-2.505860228E0,1.388462053E1,4.086644279E1,4.323341496E1
8.864203917E0,7.346869177E0,1.148676393E1,5.280942286E1,5.454133639E1
8.874135917E0,1.665519386E1,1.001832460E1,6.444946103E1,6.731638239E1
8.884067917E0,2.001225929E1,6.555211726E0,6.714716051E1,7.037188705E1
8.893999917E0,1.722384494E1,2.842207275E0,6.046105652E1,6.293074235E1
8.903931917E0,1.254405630E1,1.272486858E0,4.685783675E1,4.852452407E1
8.913863917E0,8.613363808E0,1.148557169E0,3.185475145E1,3.301869788E1
8.923795917E0,5.277213868E0,1.523504902E0,1.919975593E1,1.996999452E1
8.933727917E0,2.339799011E0,2.116548809E0,9.572836933E0,1.007936730E1
8.943659917E0,-2.070967571E-1,2.167503785E0,3.309514119E0,3.961545839E0
8.953591917E0,-1.567529466E0,1.162292863E0,-3.775383425E-1,1.987613777E0
8.963523917E0,-1.800319400E0,3.309652698E-1,-3.028209836E0,3.538466160E0
8.973454917E0,-1.375682028E0,-6.050114036E-2,-4.555367494E0,4.758942576E0
8.983386917E0,-3.768552415E-1,-1.434441867E-1,-4.933770640E0,4.950221089E0
8.993318917E0,7.391493081E-1,-2.886594951E-2,-5.215201807E0,5.267400197E0
9.003250917E0,1.263599967E0,-7.416696042E-2,-5.845501834E0,5.980976283E0
9.013182917E0,1.383473150E0,-3.640511549E-1,-6.944984198E0,7.090792390E0
9.023114917E0,1.120204020E0,-9.685605749E-1,-7.632357727E0,7.774692991E0
9.033046917E0,4.989436425E-1,-1.896147079E0,-7.377436666E0,7.633537206E0
9.042978917E0,-4.816288675E-1,-2.911845860E0,-6.580427844E0,7.211993018E0
9.052910917E0,-1.779058047E0,-3.919761997E0,-5.623800559E0,7.082140522E0
9.062842917E0,-3.166461403E0,-4.705508497E0,-5.120488608E0,7.641183915E0
9.072774917E0,-4.070835630E0,-4.976827197E0,-5.383168924E0,8.385643645E0
9.082706917E0,-4.381336815E0,-4.914491785E0,-6.298745247E0,9.111670180E0
9.092638917E0,-4.384973783E0,-4.885404519E0,-7.502527905E0,9.969107149E0
9.102570917E0,-4.226044123E0,-4.951644993E0,-8.763751271E0,1.091703135E1
9.112502917E0,-3.944748611E0,-4.894514773E0,-1.023591353E1,1.201212896E1
9.122434917E0,-3.439497723E0,-4.482775774E0,-1.173702710E1,1.302625151E1
9.132366917E0,-2.759509227E0,-3.893916719E0,-1.267293712E1,1.354181722E1
9.142297917E0,-1.956871875E0,-3.321600314E0,-1.301346258E1,1.357249368E1
9.152229917E0,-1.093955650E0,-2.906364095E0,-1.298370961E1,1.334992159E1
9.162161917E0,-5.004919121E-1,-2.569728488E0,-1.262108518E1,1.288975515E1
9.172093917E0,-1.948251325E-1,-2.410558507E0,-1.213386827E1,1.237253040E1
9.182025917E0,-4.161251418E-2,-2.391446005E0,-1.163351852E1,1.187684717E1
9.191957917E0,-1.703812860E-2,-2.588710596E0,-1.124781630E1,1.154188391E1
9.201889917E0,-2.247231156E-2,-2.966916106E0,-1.104244103E1,1.143409813E1
9.211821917E0,-6.532399692E-2,-3.309753270E0,-1.098122536E1,1.146935240E1
9.221753917E0,-2.227847636E-1,-3.614420103E0,-1.091752346E1,1.150243384E1
9.231685917E0,-4.420921149E-1,-4.023650354E0,-1.081424292E1,1.154699344E1
9.241617583E0,-6.531442210E-1,-4.402861293E0,-1.055636199E1,1.145637654E1
9.251549583E0,-7.815714423E-1,-4.647964294E0,-1.006631387E1,1.111508438E1
9.261481583E0,-8.786862391E-1,-4.771353700E0,-9.471365522E0,1.064164792E1
9.271413583E0,-9.445745654E-1,-4.833096789E0,-8.825659837E0,1.010659771E1
9.281345583E0,-8.241347138E-1,-4.900441803E0,-8.321747961E0,9.692523769E0
9.291277583E0,-5.862473231E-1,-5.056701332E0,-7.981538243E0,9.466724197E0
9.301209583E0,-2.367414461E-1,-5.157079314E0,-7.752879952E0,9.314432946E0
9.311141583E0,2.261583877E-1,-5.008754164E0,-7.807426288E0,9.278721417E0
9.321073583E0,6.114876334E-1,-4.716841863E0,-8.243568934E0,9.517297045E0
9.331004583E0,8.475544205E-1,-4.454012150E0,-8.874308086E0,9.965436104E0
9.340936583E0,1.035273212E0,-4.171696592E0,-9.552347705E0,1.047483603E1
9.350868583E0,1.191859967E0,-3.842505952E0,-1.020382401E1,1.096829096E1
9.360800583E0,1.108655038E0,-3.615454768E0,-1.063791896E1,1.129008188E1
9.370732583E0,8.953557739E-1,-3.536864973E0,-1.089147996E1,1.148631409E1
9.380664583E0,7.089731437E-1,-3.701429595E0,-1.114260617E1,1.176269086E1
9.390596583E0,6.242801718E-1,-3.886964379E0,-1.142146691E1,1.208089914E1
9.400528583E0,5.814386460E-1,-4.033095069E0,-1.175036109E1,1.243683692E1
9.410460583E0,5.673396935E-1,-4.092128266E0,-1.215081818E1,1.283393044E1
9.420392583E0,4.818015066E-1,-3.929621864E0,-1.262974257E1,1.323572657E1
9.430324583E0,3.482147752E-1,-3.595729186E0,-1.299562624E1,1.348839587E1
9.440256583E0,6.985976981E-1,-3.079335844E0,-1.302105227E1,1.339843835E1
9.450188583E0,1.477648113E0,-2.447270543E0,-1.234489195E1,1.267157978E1
9.460120583E0,2.239238597E0,-2.085563829E0,-1.061127437E1,1.104368189E1
9.470052583E0,2.532517977E0,-1.890294308E0,-8.001262656E0,8.602735842E0
9.479984583E0,2.017980687E0,-1.679048732E0,-5.583448339E0,6.169793032E0
9.489916583E0,8.255746637E-1,-1.298565732E0,-2.662497488E0,3.075181191E0
9.499848583E0,-1.440430586E0,-1.023677599E0,1.255146355E0,2.167521274E0
9.509779583E0,-3.812840104E0,-4.637929595E-1,5.163454533E0,6.435380042E0
9.519711583E0,-4.621304791E0,1.745590631E0,9.215609479E0,1.045614665E1
9.529643583E0,-4.074929851E0,5.717626151E0,1.513784257E1,1.668683852E1
9.539575583E0,-2.373321099E0,9.689342705E0,2.188740756E1,2.405357821E1
9.549507583E0,-2.004163424E0,1.300318786E1,2.629905225E1,2.940645702E1
9.559439583E0,-4.025769385E0,1.598536139E1,2.843749128E1,3.286988756E1
9.569371583E0,-3.177410315E0,1.651354155E1,3.056445105E1,3.488522121E1
9.579303583E0,2.530787201E0,1.506707957E1,3.764969534E1,4.063153122E1
9.589235583E0,8.437449741E0,1.360441962E1,4.901286784E1,5.156095427E1
9.599167583E0,1.284373195E1,1.042696311E1,5.974818270E1,6.199619622E1
9.609099583E0,1.292810493E1,4.471073741E0,6.125030434E1,6.275927166E1
9.619031583E0,9.914757546E0,-2.160019934E-2,5.231076296E1,5.324207739E1
9.628963583E0,6.982964787E0,3.473149619E-1,3.926346371E1,3.988109837E1
9.638895583E0,5.778259438E0,2.613540505E0,2.672294030E1,2.746514908E1
9.648827583E0,4.978908221E0,4.327662006E0,1.608568207E1,1.738583772E1
9.658759583E0,3.718646722E0,5.740213945E0,7.314283814E0,1.001384728E1
9.668691583E0,2.666252277E0,6.537682943E0,5.192994082E-1,7.079538922E0
9.678623583E0,1.942805228E0,6.317194966E0,-3.827978545E0,7.637726372E0
9.688555583E0,1.586451056E0,5.421678101E0,-6.176844249E0,8.370473419E0
9.698486583E0,1.445396334E0,4.110580617E0,-7.293692259E0,8.496116192E0
9.708418583E0,8.428713124E-1,2.305930184E0,-7.704501259E0,8.086228151E0
9.718350583E0,1.428175114E-1,2.378641480E-1,-7.519757311E0,7.524873833E0
9.728282583E0,-4.133753425E-1,-1.531520265E0,-7.220301517E0,7.392508876E0
9.738214583E0,-5.859402712E-1,-2.564457515E0,-6.563182651E0,7.070723786E0
9.748146583E0,-5.546433417E-1,-3.004330685E0,-5.669539234E0,6.440287822E0
9.758078583E0,-7.969427490E-1,-3.293542742E0,-5.126207770E0,6.144961158E0
9.768010583E0,-1.262657104E0,-3.498551677E0,-4.987365049E0,6.221573510E0
9.777942583E0,-1.702556439E0,-3.646074589E0,-5.159426971E0,6.543106679E0
9.787874583E0,-1.954648471E0,-3.876935527E0,-5.699512061E0,7.164894798E0
9.797806583E0,-2.251634401E0,-4.257790995E0,-6.792461917E0,8.326834965E0
9.807738583E0,-2.561982096E0,-4.532310169E0,-8.089379611E0,9.619961030E0
9.817670583E0,-2.893671836E0,-4.725756528E0,-9.659247671E0,1.113585098E1
9.827602583E0,-3.025762192E0,-4.925069983E0,-1.106535978E1,1.248413947E1
9.837534583E0,-3.055095042E0,-5.088111990E0,-1.220265258E1,1.356934852E1
9.847466583E0,-2.966054519E0,-5.010316540E0,-1.315498158E1,1.438590600E1
9.857398583E0,-2.735144464E0,-4.817998109E0,-1.365514539E1,1.473625178E1
9.867330583E0,-2.199212651E0,-4.488351386E0,-1.361720748E1,1.450552219E1
9.877262583E0,-1.308415659E0,-4.094495511E0,-1.318151858E1,1.386467732E1
9.887194583E0,-5.099747072E-1,-3.684822626E0,-1.272179645E1,1.325451232E1
9.897125583E0,-3.150143579E-2,-3.371865318E0,-1.216108355E1,1.261992160E1
9.907057583E0,5.733509235E-2,-3.209548658E0,-1.166337557E1,1.209705831E1
9.916989583E0,-4.655998953E-2,-3.329908915E0,-1.142088686E1,1.189651705E1
9.926921583E0,-2.025840953E-1,-3.580554492E0,-1.127655887E1,1.183309726E1
9.936853583E0,-3.412328343E-1,-3.793468863E0,-1.112624567E1,1.176011005E1
9.946785583E0,-5.006253017E-1,-4.025292252E0,-1.102511105E1,1.174762432E1
9.956717583E0,-8.085761500E-1,-4.490204954E0,-1.096930406E1,1.188029324E1
9.966649583E0,-1.123607538E0,-4.911800312E0,-1.083158576E1,1.194619296E1
9.976581583E0,-1.539739989E0,-5.291451838E0,-1.051484910E1,1.187149163E1
9.986513583E0,-1.889625240E0,-5.450659241E0,-9.930667820E0,1.148470866E1
9.996445583E0,-2.085847857E0,-5.460750366E0,-9.287504504E0,1.097398267E1
1.000637758E1,-2.121300988E0,-5.453820831E0,-8.773524308E0,1.054603282E1
1.001630958E1,-1.900450337E0,-5.277271171E0,-8.578055981E0,1.024911445E1
1.002624158E1,-1.252745634E0,-4.819649070E0,-8.495293322E0,9.847253292E0
1.003617358E1,-4.634415418E-1,-4.183398917E0,-8.396278911E0,9.392183138E0
1.004610558E1,4.065621668E-1,-3.436974065E0,-8.467533665E0,9.147524796E0
1.005603758E1,1.093057736E0,-2.801891600E0,-8.807606558E0,9.306949288E0
1.006596958E1,1.425390378E0,-2.532187609E0,-9.291078322E0,9.734877924E0
1.007590158E1,1.370535601E0,-2.537779594E0,-1.010946983E1,1.051285277E1
1.008583358E1,1.306129105E0,-2.446453687E0,-1.106944230E1,1.141155826E1
1.009576558E1,1.656920237E0,-2.087765306E0,-1.165656357E1,1.195740870E1
1.010569758E1,2.139626454E0,-1.597204378E0,-1.159097769E1,1.189452929E1
1.011562858E1,2.222154933E0,-1.265505282E0,-1.129416133E1,1.158004992E1
1.012556058E1,1.971727457E0,-1.048537914E0,-1.116657976E1,1.138769706E1
1.013549258E1,1.698689968E0,-9.254525623E-1,-1.128687336E1,1.145144184E1
1.014542458E1,1.480882208E0,-1.058223534E0,-1.098130021E1,1.113111869E1
1.015535658E1,1.052463442E0,-1.066230419E0,-1.015394492E1,1.026387471E1
1.016528858E1,6.249209536E-1,-7.183675727E-1,-9.142097114E0,9.191545997E0
1.017522058E1,-1.594342019E-1,-3.385070086E-1,-7.158412832E0,7.168185303E0
1.018515258E1,-2.039144977E0,-2.670698208E-1,-4.708092089E0,5.137661885E0
1.019508458E1,-4.656308563E0,-2.045066598E-1,-2.441071617E0,5.261355628E0
1.020501658E1,-7.281180972E0,7.372850695E-1,-7.044362891E-1,7.352238850E0
1.021494858E1,-8.991538328E0,2.784785279E0,2.915605327E0,9.854113099E0
1.022488058E1,-9.735933904E0,5.992522470E0,9.906928124E0,1.512765545E1
1.023481258E1,-9.221861322E0,1.164469723E1,1.845981886E1,2.369402060E1
1.024474429E1,-8.368886459E0,1.707337737E1,2.843602947E1,3.420740048E1
1.025467629E1,-4.094727938E0,1.531032257E1,4.011111819E1,4.312858190E1
1.026460829E1,2.746517884E0,1.123440512E1,5.479769604E1,5.600484542E1
1.027454029E1,8.407332487E0,9.872873940E0,7.170883072E1,7.287189638E1
1.028447229E1,1.303513470E1,7.191230915E0,8.199372754E1,8.333426603E1
1.029440429E1,1.345429119E1,3.267567948E0,7.635643161E1,7.760154380E1
1.030433629E1,8.272824308E0,1.838565161E0,5.687560002E1,5.750351138E1
1.031426829E1,2.165224395E0,3.110647976E0,3.527454932E1,3.547757260E1
1.032420029E1,-2.010190442E0,4.592691441E0,1.688429596E1,1.761286831E1
1.033413229E1,-5.033858600E0,5.945076993E0,4.369165251E0,8.931588763E0
1.034406329E1,-6.607340823E0,6.290576686E0,-2.230185937E0,9.391593960E0
1.035399529E1,-6.303959209E0,4.796150572E0,-4.786485125E0,9.254912310E0
1.036392729E1,-4.434292708E0,2.995927944E0,-5.025790027E0,7.341464531E0
1.037385929E1,-1.797347553E0,2.021185985E0,-4.340989273E0,5.114668990E0
1.038379129E1,3.752758355E-1,1.454769420E0,-4.472220672E0,4.717832528E0
1.039372329E1,2.125431022E0,3.663704529E-1,-4.804299252E0,5.266210748E0
1.040365529E1,3.243520981E0,-5.501230055E-1,-4.669640214E0,5.712145255E0
1.041358729E1,3.819897108E0,-8.777480534E-1,-5.010415358E0,6.361314143E0
1.042351929E1,3.762132757E0,-1.185506017E0,-5.826484934E0,7.036120670E0
1.043345129E1,3.533467741E0,-1.475935172E0,-6.762399042E0,7.771346068E0
1.044338329E1,3.161591257E0,-1.667639645E0,-7.477207122E0,8.287659960E0
1.045331529E1,2.284051073E0,-2.052109277E0,-8.064503801E0,8.629267834E0
1.046324729E1,1.073288008E0,-2.578605146E0,-8.617201336E0,9.058549029E0
1.047317929E1,-8.943966843E-2,-2.915267065E0,-9.149348246E0,9.602986767E0
1.048311129E1,-8.812006880E-1,-3.063841599E0,-9.907746735E0,1.040802985E1
1.049304329E1,-1.199561407E0,-3.155226271E0,-1.062128948E1,1.114478311E1
1.050297529E1,-1.301680836E0,-3.472152084E0,-1.132032411E1,1.191217659E1
1.051290729E1,-1.385298944E0,-3.898444802E0,-1.218658443E1,1.286972281E1
1.052283929E1,-1.585763423E0,-4.127962635E0,-1.302260295E1,1.375292364E1
1.053277129E1,-1.703059300E0,-4.207637965E0,-1.340859169E1,1.415609266E1
1.054270329E1,-1.650322239E0,-4.125620533E0,-1.332943910E1,1.405056067E1
1.055263529E1,-1.515798564E0,-4.064708918E0,-1.308946469E1,1.378961892E1
1.056256729E1,-1.330188351E0,-4.115237632E0,-1.260998833E1,1.333103100E1
1.057249929E1,-1.083206055E0,-4.226800460E0,-1.201536509E1,1.278312074E1
1.058243129E1,-1.009037267E0,-4.405674973E0,-1.159077070E1,1.244082367E1
1.059236329E1,-1.072742317E0,-4.563084357E0,-1.139580231E1,1.232220861E1
1.060229429E1,-1.246532237E0,-4.687550528E0,-1.128324808E1,1.228163914E1
1.061222629E1,-1.502193701E0,-4.853746524E0,-1.117605108E1,1.227678944E1
1.062215829E1,-1.714964231E0,-5.077346097E0,-1.110246153E1,1.232822768E1
1.063209029E1,-1.868789126E0,-5.363336338E0,-1.109227100E1,1.246179062E1
1.064202229E1,-2.080034994E0,-5.588429582E0,-1.115646641E1,1.265005271E1
1.065195429E1,-2.207977774E0,-5.674048607E0,-1.119406167E1,1.274272381E1
1.066188629E1,-2.194618640E0,-5.652708609E0,-1.112181815E1,1.266745060E1
1.067181829E1,-1.955339758E0,-5.485320951E0,-1.096597816E1,1.241631091E1
1.068175029E1,-1.441143946E0,-5.197975910E0,-1.082329090E1,1.209295147E1
1.069168229E1,-8.725588688E-1,-4.860504443E0,-1.067532009E1,1.176215633E1
1.070161429E1,-3.090211080E-1,-4.412210406E0,-1.053499861E1,1.142581684E1
1.071154629E1,1.467656976E-1,-3.992578250E0,-1.048565980E1,1.122101968E1
1.072147829E1,5.057878084E-1,-3.643853232E0,-1.044951933E1,1.107817413E1
1.073141029E1,8.044422416E-1,-3.278473882E0,-1.058647282E1,1.111165717E1
1.074134229E1,1.168951745E0,-2.944093254E0,-1.092111598E1,1.137123158E1
1.075127429E1,1.678486815E0,-2.633755499E0,-1.132288285E1,1.174570824E1
1.076120629E1,2.350068622E0,-2.322804956E0,-1.158221154E1,1.204432935E1
1.077113829E1,2.946913074E0,-2.014288024E0,-1.141843805E1,1.196337663E1
1.078107029E1,2.947824362E0,-2.165037138E0,-1.128722887E1,1.186501537E1
1.079100229E1,2.305120052E0,-2.709996175E0,-1.158877212E1,1.212259448E1
1.080093429E1,1.561092997E0,-2.894003666E0,-1.208931015E1,1.252851501E1
1.081086629E1,1.215454505E0,-2.453728792E0,-1.213824667E1,1.244327717E1
1.082079829E1,1.304368655E0,-1.823401869E0,-1.043868093E1,1.067671446E1
1.083073029E1,1.035020759E0,-1.470401220E0,-7.540949374E0,7.752371585E0
1.084066229E1,-3.990425744E-1,-9.382094327E-1,-3.895897463E0,4.027094357E0
1.085059429E1,-3.309876939E0,-4.972922426E-1,-4.674562401E-1,3.379511838E0
1.086052629E1,-5.845070894E0,7.801648946E-1,2.794351616E0,6.525481742E0
1.087045829E1,-6.245186505E0,3.975821300E0,6.480045769E0,9.838724646E0
1.088038929E1,-4.885794528E0,8.365560563E0,1.170302203E1,1.519257438E1
1.089032129E1,1.585618705E-2,1.308217088E1,1.963185348E1,2.359137803E1
1.090025329E1,9.617340969E-1,1.541143613E1,3.088277347E1,3.452800303E1
1.091018529E1,-1.337305436E0,1.348609069E1,4.145202975E1,4.361116598E1
1.092011729E1,-8.974202795E-1,9.307511337E0,4.761153817E1,4.852106447E1
1.093004929E1,2.537210075E0,6.253559133E0,5.092905654E1,5.137424683E1
1.093998129E1,5.740104017E0,6.684824617E0,5.632180789E1,5.700685676E1
1.094991329E1,7.540164093E0,7.102383642E0,6.050171572E1,6.138204569E1
1.095984529E1,6.655017266E0,4.555219852E0,5.843010335E1,5.898403394E1
1.096977729E1,3.972869333E0,2.153370188E0,4.951718318E1,4.972295369E1
1.097970929E1,1.182466780E0,2.107360202E0,3.639331113E1,3.647344636E1
1.098964129E1,2.509720706E-1,3.374183447E0,2.275152546E1,2.300173932E1
1.099957329E1,3.845164462E-1,4.923624551E0,1.145066439E1,1.247027051E1
1.100950529E1,1.609926311E-1,5.363902933E0,3.438977321E0,6.373691106E0
1.101943729E1,-3.622111092E-1,4.440165067E0,-1.857912428E0,4.826810675E0
1.102936929E1,-5.191852413E-1,3.312121392E0,-5.077921463E0,6.084816169E0
1.103930129E1,5.542970404E-2,2.486574649E0,-6.791712888E0,7.232806502E0
1.104923329E1,1.225502287E0,1.736513413E0,-7.733971810E0,8.020701631E0
1.105916529E1,2.151410932E0,6.029137149E-1,-8.265595395E0,8.562250941E0
1.106909729E1,2.066259393E0,-9.639842516E-1,-8.872839850E0,9.161112406E0
1.107902929E1,1.157323753E0,-2.449494239E0,-1.006129579E1,1.041964938E1
1.108896129E1,5.060824716E-1,-3.355769396E0,-1.142137803E1,1.191491434E1
1.109889329E1,1.689629342E-1,-3.916788980E0,-1.173376202E1,1.237137646E1
1.110882529E1,3.475347441E-2,-4.315020911E0,-1.124090255E1,1.204070195E1
1.111875729E1,8.575738437E-2,-4.539548729E0,-1.070783529E1,1.163067468E1
1.112868929E1,1.243225125E-1,-4.479302820E0,-1.025467256E1,1.119097490E1
1.113862129E1,8.556906749E-2,-4.055637840E0,-1.011377689E1,1.089697221E1
1.114855329E1,2.376870505E-1,-3.516064088E0,-1.024025567E1,1.082968319E1
1.115848529E1,9.752316633E-1,-2.890297700E0,-1.061276307E1,1.104244708E1
1.116841629E1,2.191650155E0,-2.181430976E0,-1.099791799E1,1.142436745E1
1.117834929E1,3.284534521E0,-1.645355614E0,-1.140496957E1,1.198201540E1
1.118828029E1,4.061943185E0,-1.157722387E0,-1.202737527E1,1.274744914E1
1.119821229E1,4.250307729E0,-7.172156712E-1,-1.267449715E1,1.338739677E1
1.120814429E1,3.935804125E0,-5.228372660E-1,-1.318110810E1,1.376610053E1
1.121807629E1,3.505890810E0,-7.720122680E-1,-1.338135887E1,1.385453133E1
1.122800829E1,3.148951916E0,-1.388355868E0,-1.337478309E1,1.381044000E1
1.123794029E1,2.821571867E0,-2.128196755E0,-1.331652377E1,1.377752861E1
1.124787242E1,2.436014653E0,-2.826204323E0,-1.311983279E1,1.364007371E1
1.125780442E1,2.055034054E0,-3.352037995E0,-1.259966449E1,1.319889650E1
1.126773642E1,1.631063557E0,-3.700886974E0,-1.182387697E1,1.249643946E1
1.127766842E1,1.288831726E0,-3.872387563E0,-1.103543841E1,1.176594125E1
1.128760042E1,1.067880357E0,-3.917432466E0,-1.055655378E1,1.131050279E1
1.129753242E1,1.046948348E0,-3.808113507E0,-1.024900193E1,1.098361826E1
1.130746442E1,1.132118453E0,-3.670579101E0,-9.971001914E0,1.068530403E1
1.131739642E1,1.276314445E0,-3.512435891E0,-9.726618120E0,1.041985050E1
1.132732842E1,1.378969040E0,-3.333007062E0,-9.600115364E0,1.025537453E1
1.133726042E1,1.360908453E0,-3.180009402E0,-9.652935601E0,1.025396008E1
1.134719242E1,1.273101108E0,-3.134243830E0,-9.810860710E0,1.037772898E1
1.135712442E1,1.123463550E0,-3.141665993E0,-1.001832109E1,1.055930836E1
1.136705642E1,1.080139775E0,-3.171816868E0,-1.024371371E1,1.077779174E1
1.137698842E1,1.260161512E0,-3.206378590E0,-1.047006879E1,1.102230516E1
1.138692042E1,1.568073549E0,-3.207721696E0,-1.054310753E1,1.113128247E1
1.139685242E1,1.987504853E0,-3.167386433E0,-1.070809256E1,1.134221137E1
1.140678442E1,2.601959510E0,-2.974316342E0,-1.095780726E1,1.164861756E1
1.141671642E1,3.249261778E0,-2.740645525E0,-1.124296545E1,1.201969683E1
1.142664842E1,3.586282132E0,-2.470976909E0,-1.145651278E1,1.225637921E1
1.143658042E1,3.557831334E0,-2.328513447E0,-1.174114120E1,1.248737504E1
1.144651242E1,3.396255809E0,-2.538879747E0,-1.212381574E1,1.284396247E1
1.145644442E1,3.027991443E0,-2.809443864E0,-1.242464095E1,1.309325818E1
1.146637642E1,2.411134458E0,-2.992859910E0,-1.235005738E1,1.293424513E1
1.147630842E1,1.707434333E0,-2.982890407E0,-1.133543097E1,1.184503958E1
1.148624042E1,6.355622283E-1,-3.027560796E0,-8.889294500E0,9.412205927E0
1.149617242E1,-1.609357669E0,-3.375992868E0,-4.927251579E0,6.185884583E0
1.150610442E1,-4.581571206E0,-4.011549541E0,4.188956988E-1,6.103998530E0
1.151603542E1,-7.600351823E0,-3.415553083E0,4.353621597E0,9.401349462E0
1.152596742E1,-9.185952986E0,-1.708106178E-1,6.566093979E0,1.129267456E1
1.153589942E1,-8.306753361E0,4.372791694E0,1.117859930E1,1.459741555E1
1.154583142E1,-5.915838575E0,7.236966666E0,2.226668837E1,2.414904229E1
1.155576342E1,-3.710266492E0,7.392916585E0,3.782304657E1,3.871697489E1
1.156569542E1,-1.827872942E0,6.770564679E0,4.877670582E1,4.927827814E1
1.157562742E1,1.113160610E0,6.149023197E0,5.161083721E1,5.198776905E1
1.158555942E1,4.696475134E0,7.645612196E0,5.128637755E1,5.206538953E1
1.159549142E1,7.769023529E0,9.806478222E0,5.062370091E1,5.214675288E1
1.160542342E1,9.719199758E0,1.095727634E1,4.919169909E1,5.132589997E1
1.161535542E1,9.325100931E0,1.088789912E1,4.369383820E1,4.598538193E1
1.162528742E1,6.622903773E0,9.967937973E0,3.576730354E1,3.771634453E1
1.163521942E1,3.945379525E0,8.356019661E0,2.734280831E1,2.886205554E1
1.164515142E1,1.832497797E0,6.819684799E0,1.961319618E1,2.084570971E1
1.165508342E1,1.383906575E-1,5.710318301E0,1.221731506E1,1.348664800E1
1.166501542E1,-8.907606664E-1,4.808532051E0,5.720107124E0,7.525626922E0
1.167494742E1,-1.441336319E0,3.675534031E0,9.226941383E-1,4.054425394E0
1.168487942E1,-1.485491568E0,2.466821001E0,-2.301051267E0,3.686017903E0
1.169481142E1,-8.766212218E-1,1.326790534E0,-4.209383066E0,4.499749292E0
1.170474342E1,-2.894705770E-1,3.502686828E-1,-5.493447996E0,5.512209380E0
1.171467542E1,2.955212027E-1,-5.217704415E-1,-6.184973633E0,6.213974253E0
1.172460742E1,1.192672656E0,-1.235844842E0,-6.324979364E0,6.554017432E0
1.173453942E1,1.737344595E0,-1.838173982E0,-6.378747436E0,6.861899787E0
1.174447142E1,1.665962517E0,-2.274026460E0,-6.590621880E0,7.168188349E0
1.175440342E1,1.340947082E0,-2.422393710E0,-6.897489020E0,7.432461580E0
1.176433542E1,7.220489797E-1,-2.333035391E0,-7.311339156E0,7.708442717E0
1.177426742E1,-7.121660158E-2,-2.290081306E0,-8.030010492E0,8.350485776E0
1.178419942E1,-8.335723391E-1,-2.340586777E0,-9.162139031E0,9.493049085E0
1.179413142E1,-1.485340418E0,-2.436203664E0,-1.033198211E1,1.071873028E1
1.180406342E1,-2.039339543E0,-2.438685368E0,-1.135632658E1,1.179288962E1
1.181399542E1,-2.302265149E0,-2.394808447E0,-1.184191212E1,1.229904122E1
1.182392742E1,-2.405320571E0,-2.283392091E0,-1.213987921E1,1.258475720E1
1.183385942E1,-2.441122488E0,-2.075303281E0,-1.260857564E1,1.300930984E1
1.184379042E1,-2.382630743E0,-1.875607272E0,-1.308076988E1,1.342763466E1
1.185372242E1,-2.162788152E0,-1.718687153E0,-1.337903401E1,1.366126236E1
1.186365442E1,-1.773119907E0,-1.569755355E0,-1.334785315E1,1.355630001E1
1.187358642E1,-1.287970285E0,-1.373787092E0,-1.297838397E1,1.311429025E1
1.188351842E1,-8.634503686E-1,-1.234765739E0,-1.239688188E1,1.248810928E1
1.189345042E1,-4.527053960E-1,-1.125462275E0,-1.178119697E1,1.184348806E1
1.190338242E1,-8.658133015E-2,-1.036555653E0,-1.118809868E1,1.123634710E1
1.191331442E1,1.061072297E-1,-1.086531074E0,-1.059385668E1,1.064995812E1
1.192324642E1,1.507504289E-1,-1.281233708E0,-1.016112764E1,1.024269498E1
1.193317842E1,3.369209513E-2,-1.521990766E0,-1.003555985E1,1.015037204E1
1.194311042E1,-1.153439301E-1,-1.731840026E0,-1.003438807E1,1.018339423E1
1.195304242E1,-3.409713907E-1,-1.962206436E0,-9.967700576E0,1.016472185E1
1.196297442E1,-5.963315043E-1,-2.219841190E0,-9.902516985E0,1.016578324E1
1.197290642E1,-8.642001278E-1,-2.446849251E0,-9.719445925E0,1.005989772E1
1.198283842E1,-1.159172496E0,-2.688509996E0,-9.780923551E0,1.020971265E1
1.199277042E1,-1.474036288E0,-2.776381953E0,-1.003851971E1,1.051917096E1
1.200270242E1,-1.751280849E0,-2.806165915E0,-1.009276433E1,1.062099071E1
1.201263442E1,-1.969828720E0,-2.848268499E0,-9.977902797E0,1.056178976E1
1.202256642E1,-1.987054325E0,-2.875575581E0,-9.742157096E0,1.035021472E1
1.203249842E1,-1.839921715E0,-2.871908792E0,-9.559657894E0,1.014988823E1
1.204243042E1,-1.608480294E0,-2.803774989E0,-9.478564029E0,1.001456635E1
1.205236242E1,-1.250618856E0,-2.680666541E0,-9.357189866E0,9.813614156E0
1.206229442E1,-9.115873522E-1,-2.533840617E0,-9.311892071E0,9.693434567E0
1.207222642E1,-6.838792330E-1,-2.475736835E0,-9.419999487E0,9.763880070E0
1.208215842E1,-5.343141809E-1,-2.432676916E0,-9.746851825E0,1.006004618E1
1.209209042E1,-4.202658476E-1,-2.259173070E0,-1.019513855E1,1.045090123E1
1.210202242E1,-1.916264132E-1,-1.969690580E0,-1.078169497E1,1.096181318E1
1.211195442E1,1.992312288E-1,-1.663472481E0,-1.135490922E1,1.147783939E1
1.212188642E1,4.484431413E-1,-1.457177742E0,-1.155028574E1,1.165047505E1
1.213181842E1,3.345221311E-1,-1.451123681E0,-1.117941674E1,1.127816579E1
1.214175042E1,-1.327598619E-1,-1.596205235E0,-1.036699641E1,1.049000052E1
1.215168242E1,-9.077259240E-1,-1.562638562E0,-8.791278208E0,8.975097669E0
1.216161442E1,-2.039042796E0,-1.585462145E0,-5.210058011E0,5.815160378E0
1.217154642E1,-3.949511753E0,-2.334761197E0,1.805001558E0,4.930292441E0
1.218147842E1,-6.268186528E0,-2.823939112E0,9.739043453E0,1.192114767E1
1.219141042E1,-7.074695322E0,-1.757722580E0,1.443328817E1,1.616974675E1
1.220134242E1,-4.348642986E0,1.635341234E0,1.656170390E1,1.720101953E1
1.221127442E1,3.460002520E-1,6.477489367E0,2.197063683E1,2.290821833E1
1.222120542E1,3.583077857E0,9.767592484E0,3.157144216E1,3.324154434E1
1.223113742E1,4.971281698E0,8.318532577E0,4.043711683E1,4.158211206E1
1.224106921E1,6.342120477E0,4.543101205E0,4.624168991E1,4.689516123E1
1.225100121E1,7.025986261E0,2.245263568E0,4.864653744E1,4.920255376E1
1.226093321E1,6.833084863E0,1.836915807E0,4.878423703E1,4.929469638E1
1.227086521E1,6.689799428E0,2.560803882E0,4.762001897E1,4.815576123E1
1.228079721E1,6.619874330E0,3.363165831E0,4.347576044E1,4.410527595E1
1.229072921E1,5.424532712E0,3.814395755E0,3.673298524E1,3.732676486E1
1.230066121E1,3.352034487E0,3.837524709E0,2.884390785E1,2.929050616E1
1.231059321E1,1.385083327E0,4.022858056E0,2.062629646E1,2.106053058E1
1.232052521E1,3.200071491E-2,4.714013272E0,1.293053503E1,1.376305494E1
1.233045721E1,-9.656614523E-1,5.225923846E0,6.168123127E0,8.141776526E0
1.234038921E1,-1.407464422E0,5.315479217E0,8.721952450E-1,5.567405136E0
1.235032121E1,-1.173428008E0,4.936382591E0,-3.022287192E0,5.905846785E0
1.236025321E1,-4.507312299E-1,4.121218456E0,-5.670909237E0,7.024728591E0
1.237018521E1,4.162319266E-1,3.070333178E0,-7.599805108E0,8.207145212E0
1.238011721E1,1.176477185E0,2.158075589E0,-8.944311537E0,9.275887972E0
1.239004921E1,1.856068216E0,1.176628043E0,-9.128260848E0,9.389067519E0
1.239998121E1,2.018871364E0,-5.815392181E-2,-8.416146580E0,8.655099463E0
1.240991321E1,1.623477672E0,-8.742087337E-1,-7.680269812E0,7.898510306E0
1.241984521E1,1.016979833E0,-1.173662189E0,-7.413295886E0,7.574211959E0
1.242977721E1,4.155758690E-1,-9.673154104E-1,-7.700436859E0,7.772073740E0
1.243970921E1,1.605289469E-1,-3.659170014E-1,-8.433184782E0,8.442645933E0
1.244964121E1,9.903443769E-2,-2.270644138E-1,-9.181013258E0,9.184354660E0
1.245957321E1,-1.043148389E-1,-2.382311339E-1,-1.028257080E1,1.028585912E1
1.246950521E1,-5.215041009E-1,-2.109768232E-1,-1.148777433E1,1.150154063E1
1.247943721E1,-9.181705861E-1,-2.629251681E-2,-1.239181936E1,1.242581650E1
1.248936921E1,-1.180650927E0,1.053869259E-1,-1.299973332E1,1.305366268E1
1.249930121E1,-1.337479683E0,-1.798033431E-2,-1.352927120E1,1.359523279E1
1.250923321E1,-1.425532904E0,-2.802511990E-1,-1.376233771E1,1.383880862E1
1.251916521E1,-1.397038545E0,-5.031711794E-1,-1.364237507E1,1.372294777E1
1.252909721E1,-1.284554049E0,-7.153803764E-1,-1.335547558E1,1.343616672E1
1.253902921E1,-1.043868400E0,-1.002733457E0,-1.298916156E1,1.306956210E1
1.254896121E1,-7.477009340E-1,-1.251554703E0,-1.243891868E1,1.252406259E1
1.255889321E1,-5.720849282E-1,-1.426572685E0,-1.184194018E1,1.194127037E1
1.256882521E1,-4.662821192E-1,-1.500520813E0,-1.131922132E1,1.142776238E1
1.257875721E1,-3.902125479E-1,-1.569151922E0,-1.092304206E1,1.104207188E1
1.258868921E1,-3.088467879E-1,-1.602438659E0,-1.058877545E1,1.071379305E1
1.259862121E1,-2.730262332E-1,-1.664658150E0,-1.033318781E1,1.046997614E1
1.260855321E1,-2.720170037E-1,-1.766882682E0,-1.029556799E1,1.044962142E1
1.261848421E1,-2.911065549E-1,-1.753613303E0,-1.049375469E1,1.064325092E1
1.262841621E1,-3.070467225E-1,-1.695972913E0,-1.063705357E1,1.077578352E1
1.263834821E1,-4.675147122E-1,-1.779251297E0,-1.073318413E1,1.088969912E1
1.264828021E1,-7.828025736E-1,-1.975720375E0,-1.080731046E1,1.101427302E1
1.265821221E1,-1.093302369E0,-2.160311126E0,-1.088951763E1,1.115544031E1
1.266814421E1,-1.359879051E0,-2.321255736E0,-1.091785324E1,1.124442166E1
1.267807621E1,-1.648735597E0,-2.395308091E0,-1.084312582E1,1.122627309E1
1.268800821E1,-1.881523192E0,-2.414356420E0,-1.069035445E1,1.111993366E1
1.269794021E1,-1.981085926E0,-2.359006092E0,-1.054202696E1,1.098289323E1
1.270787221E1,-1.932950331E0,-2.239496459E0,-1.050691794E1,1.091544621E1
1.271780421E1,-1.825309815E0,-2.140254006E0,-1.053835725E1,1.090731024E1
1.272773621E1,-1.702884322E0,-2.022535230E0,-1.073509617E1,1.105589226E1
1.273766821E1,-1.327178643E0,-1.781339046E0,-1.103204000E1,1.125346518E1
1.274760021E1,-8.418047802E-1,-1.523764518E0,-1.100043580E1,1.113732829E1
1.275753221E1,-4.071841644E-1,-1.278079866E0,-1.076374870E1,1.084700757E1
1.276746421E1,6.046298727E-2,-1.067051733E0,-1.041492720E1,1.046962100E1
1.277739621E1,5.112762974E-1,-8.910385553E-1,-1.008776262E1,1.013993629E1
1.278732821E1,8.512788776E-1,-6.633986293E-1,-9.736383555E0,9.796016445E0
1.279726021E1,9.238265978E-1,-5.667403904E-1,-9.166365398E0,9.230216946E0
1.280719221E1,2.293966489E-1,-1.022586947E0,-7.693858742E0,7.764906260E0
1.281712421E1,-8.367684272E-1,-1.988745925E0,-4.907544124E0,5.360903010E0
1.282705621E1,-6.430009098E-1,-3.098459747E0,-6.250036186E-1,3.225605757E0
1.283698821E1,-1.226902549E0,-3.927002604E0,4.654015869E0,6.211803525E0
1.284692021E1,-2.605330137E0,-3.312278098E0,1.013629101E1,1.097740072E1
1.285685221E1,-2.066677907E0,-1.307354682E0,1.227844887E1,1.251961023E1
1.286678421E1,7.055908949E-1,7.945092840E-1,1.307946128E1,1.312255352E1
1.287671621E1,4.072247148E0,3.599567590E0,2.048630008E1,2.119501297E1
1.288664821E1,6.858598019E0,3.987901062E0,3.243027418E1,3.338662015E1
1.289658021E1,7.951195872E0,4.489079949E-1,4.177480073E1,4.252713264E1
1.290651221E1,7.375498314E0,-2.291542818E0,4.624060935E1,4.688115929E1
1.291644421E1,7.766107523E0,-2.798525358E0,4.717335251E1,4.789018017E1
1.292637621E1,9.789901366E0,-2.379099171E0,4.737814539E1,4.843749521E1
1.293630821E1,1.122908299E1,-1.898785050E0,4.727035548E1,4.862287729E1
1.294624021E1,1.040984597E1,-1.716305436E0,4.516934330E1,4.638512878E1
1.295617221E1,8.210410543E0,-1.662915972E0,3.964780353E1,4.052313482E1
1.296610421E1,6.290721112E0,-1.516763793E0,3.234484168E1,3.298579282E1
1.297603621E1,4.682206466E0,-1.354022041E0,2.421547647E1,2.470112819E1
1.298596821E1,3.173292705E0,-4.021293926E-1,1.563914074E1,1.596290129E1
1.299590021E1,2.073186735E0,1.241281437E0,8.150746724E0,8.501385476E0
1.300583221E1,1.583726984E0,2.873420590E0,2.792889812E0,4.308708687E0
1.301576421E1,1.351222686E0,3.841930294E0,-9.954253149E-1,4.192505538E0
1.302569621E1,1.416527461E0,4.056290681E0,-3.639256151E0,5.630650892E0
1.303562821E1,1.598232318E0,3.627557627E0,-5.379241934E0,6.682047939E0
1.304556021E1,1.497547358E0,2.594942559E0,-6.297715552E0,6.974065969E0
1.305549221E1,1.183717719E0,1.155639462E0,-6.548165832E0,6.753900056E0
1.306542421E1,8.290372387E-1,-3.695351122E-1,-6.515887447E0,6.578802943E0
1.307535521E1,2.900880430E-1,-1.754084735E0,-6.512004311E0,6.750345508E0
1.308528721E1,-2.160402927E-1,-2.894279362E0,-6.448283694E0,7.071342802E0
1.309521921E1,-6.212675402E-1,-3.572225425E0,-6.441490983E0,7.391858625E0
1.310515121E1,-1.016826270E0,-3.843374848E0,-6.622807294E0,7.724444468E0
1.311508321E1,-1.385775492E0,-3.793648080E0,-7.044660514E0,8.120306720E0
1.312501521E1,-1.539855033E0,-3.643024097E0,-7.637167062E0,8.600528985E0
1.313494721E1,-1.424230875E0,-3.453663772E0,-8.395577829E0,9.189230334E0
1.314487921E1,-1.204580438E0,-3.195126501E0,-9.217398142E0,9.829561328E0
1.315481121E1,-1.023799587E0,-2.867096241E0,-9.957893625E0,1.041287914E1
1.316474321E1,-9.939788599E-1,-2.589939096E0,-1.102670501E1,1.137031230E1
1.317467521E1,-1.064252890E0,-2.243584540E0,-1.224756387E1,1.249676465E1
1.318460721E1,-1.042910919E0,-1.896461220E0,-1.305390661E1,1.323210890E1
1.319453921E1,-1.001651576E0,-1.797501481E0,-1.346785322E1,1.362414723E1
1.320447121E1,-9.669815344E-1,-1.848881111E0,-1.358413446E1,1.374343930E1
1.321440321E1,-8.330694055E-1,-1.952969882E0,-1.348364070E1,1.364978617E1
1.322433521E1,-6.070380851E-1,-2.119181518E0,-1.343364584E1,1.361331209E1
1.323426721E1,-3.515806518E-1,-2.206421391E0,-1.346126107E1,1.364541879E1
1.324419921E1,-1.251259565E-1,-2.226680093E0,-1.322166322E1,1.340843537E1
1.325413121E1,1.130250158E-1,-2.196541643E0,-1.289254450E1,1.307881010E1
1.326406321E1,2.301043447E-1,-2.174809297E0,-1.260208991E1,1.279044228E1
1.327399521E1,1.348959229E-1,-2.280480470E0,-1.243750950E1,1.264556961E1
1.328392721E1,-8.676372673E-2,-2.464408147E0,-1.231787781E1,1.256228280E1
1.329385921E1,-3.141680099E-1,-2.639390753E0,-1.217810831E1,1.246480674E1
1.330379121E1,-6.229544619E-1,-2.847555723E0,-1.205505248E1,1.240245686E1
1.331372321E1,-1.007220172E0,-2.981782944E0,-1.200096808E1,1.240680284E1
1.332365521E1,-1.224567975E0,-3.104693464E0,-1.198711953E1,1.244305923E1
1.333358721E1,-1.432644141E0,-3.267553622E0,-1.196412711E1,1.248477927E1
1.334351921E1,-1.629312170E0,-3.416497700E0,-1.213705851E1,1.271358738E1
1.335345121E1,-1.599516221E0,-3.393529545E0,-1.228128243E1,1.284151054E1
1.336338321E1,-1.213271520E0,-3.062273668E0,-1.223916493E1,1.267464816E1
1.337331521E1,-5.612706491E-1,-2.570894715E0,-1.198270138E1,1.226823771E1
1.338324721E1,-8.150168946E-2,-2.198225934E0,-1.154822285E1,1.175586197E1
1.339317921E1,-3.283750629E-2,-2.113079949E0,-1.133280441E1,1.152816728E1
1.340311121E1,4.068529196E-3,-2.273802365E0,-1.112330569E1,1.135333093E1
1.341304321E1,-1.138587008E-1,-2.618863226E0,-1.081613975E1,1.112925368E1
1.342297521E1,-3.612492422E-1,-3.018229224E0,-1.043422302E1,1.086799055E1
1.343290721E1,-1.556133571E-1,-3.196707296E0,-1.006419718E1,1.056083415E1
1.344283921E1,4.267392270E-1,-3.363003278E0,-8.505648156E0,9.156306459E0
1.345277121E1,3.968539250E-1,-3.729867236E0,-5.863876709E0,6.960923264E0
1.346270321E1,-4.082061115E-1,-3.827316055E0,-2.902209356E0,4.820560088E0
1.347263521E1,-1.496505091E0,-3.249776040E0,-3.125792849E-1,3.591417215E0
1.348256721E1,-2.328221232E0,-2.131074755E0,9.770837688E-1,3.304056054E0
1.349249921E1,-3.298489194E0,2.410463490E-1,1.397539505E0,3.590438827E0
1.350243121E1,-4.358063727E0,3.355565912E0,1.502254951E0,5.701693782E0
1.351236321E1,-4.396091386E0,6.035311224E0,3.733164774E0,8.347881185E0
1.352229521E1,-2.798899873E0,8.353608854E0,9.115669454E0,1.267722568E1
1.353222721E1,-1.432177826E0,1.014280246E1,1.773054477E1,2.047681110E1
1.354215921E1,-7.027731217E-1,9.475968450E0,2.726687870E1,2.887508515E1
1.355209121E1,-1.580161425E-1,7.039919007E0,3.593596998E1,3.661938513E1
1.356202321E1,2.374720374E-1,4.339206164E0,4.394041294E1,4.415478448E1
1.357195521E1,5.269859386E-1,1.640956900E0,5.055629889E1,5.058566804E1
1.358188721E1,1.014438779E0,-4.766859238E-1,5.490547660E1,5.491691612E1
1.359181921E1,1.875051055E0,-1.630411008E0,5.411964824E1,5.417665901E1
1.360175121E1,2.055957622E0,-1.470070414E0,4.710539383E1,4.717315123E1
1.361168321E1,1.341945055E0,-5.950214356E-1,3.724989781E1,3.727881106E1
1.362161521E1,6.970300595E-1,2.712096494E-1,2.738327104E1,2.739348350E1
1.363154721E1,3.817921188E-1,1.492252704E0,1.799651122E1,1.806230881E1
1.364147921E1,2.349970755E-1,2.918827727E0,9.961007853E0,1.038250723E1
1.365141121E1,2.613069512E-1,3.939617387E0,3.544351748E0,5.305779471E0
1.366134321E1,2.021230423E-1,4.108960646E0,-1.581063724E0,4.407286445E0
1.367127521E1,5.446388289E-1,4.086381623E0,-5.328006876E0,6.736675997E0
1.368120721E1,1.141218255E0,3.813682395E0,-7.787160423E0,8.745651489E0
1.369113921E1,1.766317987E0,2.968526722E0,-9.092115700E0,9.726181061E0
1.370107121E1,2.264568442E0,1.799411912E0,-9.456442258E0,9.888905584E0
1.371100321E1,2.495597780E0,5.293330841E-1,-9.213807952E0,9.560463313E0
1.372093521E1,2.405151002E0,-6.166666585E-1,-8.778840596E0,9.123216062E0
1.373086721E1,2.125446517E0,-1.596214152E0,-8.138736543E0,8.561802090E0
1.374079921E1,1.712842569E0,-2.236394511E0,-7.513021903E0,8.023763966E0
1.375073121E1,1.225881406E0,-2.564899272E0,-7.130470743E0,7.676269049E0
1.376066321E1,4.972718505E-1,-2.729771458E0,-7.230993735E0,7.745075978E0
1.377059521E1,-3.944206428E-1,-2.790574607E0,-7.787395481E0,8.281690809E0
1.378052721E1,-1.045604731E0,-2.632610030E0,-8.494522659E0,8.954375468E0
1.379045921E1,-1.276806781E0,-2.355530360E0,-9.057068658E0,9.445064929E0
1.380039121E1,-1.219185467E0,-2.148585412E0,-9.452108302E0,9.769605101E0
1.381032321E1,-1.083677925E0,-2.066381599E0,-9.807337763E0,1.008107954E1
1.382025521E1,-9.469577444E-1,-1.956091125E0,-1.032540750E1,1.055163786E1
1.383018621E1,-7.866765001E-1,-1.712907619E0,-1.093364189E1,1.109492845E1
1.384011921E1,-6.590571447E-1,-1.579804526E0,-1.140176179E1,1.152954078E1
1.385005121E1,-6.376906148E-1,-1.617933196E0,-1.168129144E1,1.181003501E1
1.385998321E1,-6.249919242E-1,-1.749301128E0,-1.188069202E1,1.202503689E1
1.386991421E1,-5.260834209E-1,-1.976912768E0,-1.189246480E1,1.206713168E1
1.387984621E1,-4.618577503E-1,-2.223824459E0,-1.178029299E1,1.199725013E1
1.388977821E1,-4.896214266E-1,-2.437417107E0,-1.149336661E1,1.175917545E1
1.389971021E1,-5.932786730E-1,-2.706056028E0,-1.124654394E1,1.158272289E1
1.390964221E1,-7.493803275E-1,-2.889936635E0,-1.116690720E1,1.155911420E1
1.391957421E1,-8.840805148E-1,-2.994948827E0,-1.118778293E1,1.161541234E1
1.392950621E1,-1.070770782E0,-3.060382971E0,-1.110185225E1,1.156562222E1
1.393943821E1,-1.285479956E0,-3.139408383E0,-1.093726599E1,1.145129386E1
1.394937021E1,-1.444465018E0,-3.260966442E0,-1.081963405E1,1.139231593E1
1.395930221E1,-1.544853817E0,-3.339060100E0,-1.066704862E1,1.128369717E1
1.396923421E1,-1.641600678E0,-3.400371664E0,-1.043902709E1,1.110093090E1
1.397916621E1,-1.897524390E0,-3.528840839E0,-1.021279130E1,1.097061633E1
1.398909821E1,-2.259745951E0,-3.640825252E0,-1.021540266E1,1.107774850E1
1.399903021E1,-2.452545316E0,-3.602665153E0,-1.033257502E1,1.121411081E1
1.400896221E1,-2.416726881E0,-3.491887606E0,-1.039568753E1,1.122961117E1
1.401889421E1,-2.217727275E0,-3.368958375E0,-1.034297371E1,1.110158997E1
1.402882621E1,-1.916104649E0,-3.208661343E0,-1.027222941E1,1.093094972E1
1.403875821E1,-1.586007544E0,-2.972191756E0,-1.028224920E1,1.082007359E1
1.404869021E1,-1.283454773E0,-2.708273000E0,-1.034534768E1,1.077071109E1
1.405862221E1,-9.815597393E-1,-2.385084527E0,-1.039078405E1,1.070609550E1
1.406855421E1,-5.749212664E-1,-2.019910122E0,-1.037578360E1,1.058619180E1
1.407848621E1,-5.208414651E-2,-1.662467637E0,-1.022392907E1,1.035834143E1
1.408841821E1,3.933870743E-1,-1.264346949E0,-9.637548653E0,9.728086690E0
1.409835021E1,4.825191061E-1,-7.455582950E-1,-8.774045879E0,8.818875379E0
1.410828221E1,6.384019285E-2,-2.365517405E-1,-6.809171505E0,6.813578273E0
1.411821421E1,7.080916759E-1,4.273232907E-1,-2.903365350E0,3.018862265E0
1.412814621E1,3.071203244E0,1.912420611E0,4.011937796E0,5.402340867E0
1.413807821E1,3.975526600E0,3.902617668E0,1.099407988E1,1.232497581E1
1.414801021E1,2.826753377E0,6.725037673E0,1.258711402E1,1.454826814E1
1.415794221E1,1.498649412E0,8.550572314E0,1.107790206E1,1.407402398E1
1.416787421E1,4.920525527E-1,8.497640979E0,1.239791684E1,1.503862892E1
1.417780621E1,3.262758613E0,8.255201969E0,2.076281491E1,2.258070938E1
1.418773821E1,8.997273862E0,7.379643406E0,3.184297516E1,3.390258310E1
1.419767021E1,1.318009186E1,5.685759995E0,4.106173512E1,4.349837674E1
1.420760221E1,1.436962953E1,3.723024532E0,4.604095734E1,4.837475495E1
1.421753421E1,1.295556813E1,1.310969577E0,4.899371704E1,5.069467128E1
1.422746621E1,9.965779181E0,-1.547294884E0,4.671036062E1,4.778669967E1
1.423739821E1,6.575286972E0,-2.999445044E0,3.937055663E1,4.002838741E1
1.424733054E1,3.722472555E0,-2.273241033E0,3.081045745E1,3.111765921E1
1.425726254E1,1.606575125E0,-8.494574699E-1,2.261974793E1,2.269263444E1
1.426719454E1,2.312076777E-2,4.350666122E-1,1.574175937E1,1.574778733E1
1.427712654E1,-1.020119422E0,1.135808411E0,1.032616647E1,1.043841072E1
1.428705854E1,-1.599033679E0,1.554100458E0,5.694087600E0,6.115126371E0
1.429699054E1,-1.513733912E0,1.955517806E0,1.741965065E0,3.024877276E0
1.430692254E1,-1.089323851E0,2.211925960E0,-1.467100321E0,2.869081082E0
1.431685454E1,-8.558231143E-1,2.127046462E0,-3.834911004E0,4.468031139E0
1.432678654E1,-7.609757216E-1,1.700213460E0,-5.622483766E0,5.923017268E0
1.433671854E1,-6.554772601E-1,1.046887902E0,-6.777945619E0,6.889569764E0
1.434665054E1,-1.991968764E-1,4.506239700E-1,-7.419185202E0,7.435526236E0
1.435658254E1,3.900098687E-1,1.802335886E-1,-7.455339121E0,7.467708701E0
1.436651454E1,5.925125416E-1,1.098512567E-1,-6.860474975E0,6.886890103E0
1.437644654E1,3.863579902E-1,2.225271024E-1,-6.293842356E0,6.309615076E0
1.438637854E1,7.488324434E-2,3.799001425E-1,-6.159611920E0,6.171770461E0
1.439631054E1,-3.586674772E-1,4.742854225E-1,-6.321396191E0,6.349302231E0
1.440624254E1,-8.913784978E-1,3.937403558E-1,-6.676575365E0,6.747313962E0
1.441617454E1,-1.449308267E0,1.794958709E-1,-7.134845629E0,7.282769760E0
1.442610654E1,-1.795609760E0,-2.524536728E-2,-7.709273171E0,7.915664506E0
1.443603854E1,-2.032321714E0,-1.220108340E-1,-8.504051281E0,8.744375700E0
1.444597054E1,-2.159411531E0,-1.877942942E-1,-9.414745179E0,9.661042989E0
1.445590254E1,-2.081421369E0,-2.449820733E-1,-1.049572871E1,1.070292727E1
1.446583454E1,-1.794237419E0,-2.778853059E-1,-1.148310124E1,1.162575254E1
1.447576654E1,-1.314181891E0,-1.827526787E-1,-1.209216827E1,1.216474439E1
1.448569854E1,-9.186532006E-1,-8.048151478E-2,-1.225952611E1,1.229416046E1
1.449563054E1,-6.203341784E-1,9.308672301E-2,-1.228707000E1,1.230307152E1
1.450556254E1,-4.032554202E-1,2.205349012E-1,-1.209193204E1,1.210066408E1
1.451549454E1,-3.376220325E-1,1.309035902E-1,-1.171179286E1,1.171738948E1
1.452542654E1,-4.551570605E-1,-9.784116715E-2,-1.116216394E1,1.117186845E1
1.453535854E1,-6.415725812E-1,-3.626795442E-1,-1.047082308E1,1.049672748E1
1.454529054E1,-8.310939968E-1,-6.683099981E-1,-9.826887928E0,9.884588097E0
1.455522254E1,-1.053532459E0,-9.728885378E-1,-9.368093753E0,9.477216011E0
1.456515454E1,-1.221406167E0,-1.296366594E0,-9.098590906E0,9.271286634E0
1.457508654E1,-1.431790886E0,-1.667232386E0,-8.883003480E0,9.150816346E0
1.458501854E1,-1.673878332E0,-1.983336812E0,-8.751254017E0,9.127975704E0
1.459495054E1,-1.824358765E0,-2.150426407E0,-8.858391380E0,9.296435687E0
1.460488254E1,-1.978127966E0,-2.238363122E0,-9.003816896E0,9.486410196E0
1.461481454E1,-2.114249977E0,-2.269722032E0,-9.158402660E0,9.669437954E0
1.462474654E1,-2.076233281E0,-2.223213425E0,-9.267299450E0,9.753781916E0
1.463467854E1,-2.057260966E0,-2.242196703E0,-9.197852070E0,9.688150052E0
1.464461054E1,-2.171269100E0,-2.365873646E0,-9.047472208E0,9.600443790E0
1.465454254E1,-2.316247011E0,-2.482355591E0,-9.042285728E0,9.658675928E0
1.466447454E1,-2.377830179E0,-2.396381786E0,-9.399247718E0,9.987120691E0
1.467440654E1,-2.195260811E0,-2.206561578E0,-9.966724091E0,1.044144018E1
1.468433854E1,-1.799301546E0,-1.922292172E0,-1.013226578E1,1.046878709E1
1.469427054E1,-1.414106713E0,-1.776461152E0,-9.315143123E0,9.587877941E0
1.470420254E1,-1.190425352E0,-1.821397005E0,-7.829572032E0,8.126302835E0
1.471413454E1,-1.065633418E0,-2.135880874E0,-6.815265473E0,7.221177546E0
1.472406654E1,-9.632771771E-1,-1.788176195E0,-6.733000996E0,7.032693612E0
1.473399854E1,-7.734065366E-1,-1.330067168E0,-5.999166661E0,6.193321965E0
1.474393054E1,-7.052259555E-1,-1.092775170E0,-3.422359534E0,3.661153643E0
1.475386254E1,-4.052497593E-1,-1.155372391E0,1.051700088E0,1.614058798E0
1.476379454E1,-1.673544748E-1,-1.492720335E0,4.904772543E0,5.129621353E0
1.477372654E1,-5.714805454E-1,-1.274428280E0,6.488157027E0,6.636786802E0
1.478365854E1,-1.017256625E0,9.088355063E-1,6.878774421E0,7.012726328E0
1.479359054E1,-6.231639384E-1,5.048491842E0,6.750420436E0,8.452442205E0
1.480352254E1,4.872701881E-1,8.573784590E0,1.008332108E1,1.324464339E1
1.481345454E1,2.157918153E0,9.640553538E0,1.732107127E1,1.994032079E1
1.482338654E1,3.271633517E0,8.477982055E0,2.426866274E1,2.591423850E1
1.483331854E1,3.023336767E0,6.631847674E0,3.035796248E1,3.122063188E1
1.484325054E1,2.710623581E0,4.563313860E0,3.521898206E1,3.561668164E1
1.485318254E1,3.008311469E0,3.073655566E0,3.827170343E1,3.851260287E1
1.486311454E1,3.670377664E0,2.637907607E0,3.939830518E1,3.965673561E1
1.487304654E1,3.960055160E0,2.191179015E0,3.793920268E1,3.820819810E1
1.488297854E1,3.543143713E0,1.785003496E0,3.364429882E1,3.387741059E1
1.489291054E1,2.388914600E0,1.933037747E0,2.797732944E1,2.814559487E1
1.490284254E1,1.259622106E0,2.216495413E0,2.201273912E1,2.215987778E1
1.491277454E1,5.316612626E-1,2.628454998E0,1.648543399E1,1.670212481E1
1.492270654E1,-1.100907185E-1,2.930766865E0,1.144723675E1,1.181696847E1
1.493263854E1,-4.510760694E-1,2.973189291E0,6.649712672E0,7.298082131E0
1.494257054E1,-5.620758837E-1,2.882238775E0,2.462249063E0,3.832218692E0
1.495250254E1,-4.803425532E-1,2.632522906E0,-7.617688233E-1,2.782300767E0
1.496243454E1,-8.023205794E-2,2.113792286E0,-3.113848157E0,3.764386451E0
1.497236654E1,3.554588176E-1,1.313577435E0,-4.536309080E0,4.736025413E0
1.498229854E1,1.006725425E0,2.629128890E-1,-5.065113137E0,5.170879070E0
1.499223054E1,1.642580087E0,-7.384124127E-1,-5.362286763E0,5.656628108E0
1.500216254E1,2.201425091E0,-1.340021175E0,-5.740353693E0,6.292343737E0
1.501209454E1,2.653176441E0,-1.502004983E0,-5.994495905E0,6.725276600E0
1.502202654E1,2.653659714E0,-1.450976332E0,-6.022190073E0,6.738992169E0
1.503195854E1,2.312384633E0,-1.439639019E0,-5.997219538E0,6.586829691E0
1.504189054E1,1.850613495E0,-1.612653160E0,-6.162767662E0,6.633635939E0
1.505182254E1,1.212270477E0,-1.875660774E0,-6.611776521E0,6.978774378E0
1.506175454E1,4.019979034E-1,-2.077666872E0,-7.437349577E0,7.732559128E0
1.507168654E1,-3.352261724E-1,-2.115287711E0,-8.702836148E0,8.962487139E0
1.508161854E1,-9.433001648E-1,-1.955979151E0,-9.911842124E0,1.014693471E1
1.509155054E1,-1.375970296E0,-1.786752252E0,-1.085762458E1,1.108935478E1
1.510148254E1,-1.623852478E0,-1.686708146E0,-1.147615007E1,1.171255316E1
1.511141454E1,-1.666300486E0,-1.653795777E0,-1.197696760E1,1.220489044E1
1.512134654E1,-1.688865476E0,-1.627390044E0,-1.241705010E1,1.263660548E1
1.513127854E1,-1.730142872E0,-1.510906637E0,-1.275921629E1,1.296432928E1
1.514121054E1,-1.694407614E0,-1.323419322E0,-1.287633953E1,1.305459979E1
1.515114254E1,-1.538168257E0,-1.211275135E0,-1.274500990E1,1.289451148E1
1.516107454E1,-1.250846020E0,-1.154073578E0,-1.242816682E1,1.254415530E1
1.517100654E1,-8.669847912E-1,-1.174149993E0,-1.186782932E1,1.195724314E1
1.518093854E1,-4.867402111E-1,-1.236457484E0,-1.117805901E1,1.125676447E1
1.519087054E1,-1.588621250E-1,-1.358368276E0,-1.061589133E1,1.070362323E1
1.520080254E1,1.286964125E-1,-1.490089819E0,-1.016312505E1,1.027258688E1
1.521073454E1,2.865915542E-1,-1.572194813E0,-9.745352014E0,9.875516044E0
1.522066654E1,3.064820277E-1,-1.638247008E0,-9.629812787E0,9.772976967E0
1.523059854E1,2.168266701E-1,-1.774120219E0,-9.745682382E0,9.908220902E0
1.524053054E1,4.393005811E-2,-1.919455396E0,-9.798396201E0,9.984728688E0
1.525046254E1,-3.347450562E-2,-1.981362061E0,-9.948713497E0,1.014415183E1
1.526039454E1,-9.797309496E-2,-2.070558558E0,-1.013890822E1,1.034863621E1
1.527032654E1,-2.890772056E-1,-2.145866456E0,-1.034268602E1,1.056690412E1
1.528025854E1,-3.581502179E-1,-2.141351529E0,-1.052230781E1,1.074395735E1
1.529019054E1,-3.797415733E-1,-2.212872916E0,-1.021144761E1,1.045536572E1
1.530012254E1,-5.365094449E-1,-2.425421398E0,-9.762002546E0,1.007309312E1
1.531005454E1,-7.731340563E-1,-2.527785825E0,-9.671213413E0,1.002595663E1
1.531998654E1,-1.216897963E0,-2.397986116E0,-9.723108037E0,1.008811221E1
1.532991854E1,-1.378553303E0,-2.069937584E0,-9.332414628E0,9.658106109E0
1.533984954E1,-8.437430591E-1,-1.726387644E0,-8.508864709E0,8.723135634E0
1.534978154E1,-2.854604103E-1,-1.567846970E0,-7.300691961E0,7.472598937E0
1.535971454E1,-1.805596805E-1,-1.668809673E0,-6.276352749E0,6.496932458E0
1.536964554E1,-1.208961537E-1,-1.740730572E0,-5.078750598E0,5.370145849E0
1.537957854E1,5.312021466E-1,-1.601977752E0,-2.378738544E0,2.916659990E0
1.538951054E1,1.489369150E0,-6.651288204E-1,-8.449928284E-2,1.633326954E0
1.539944154E1,1.774915295E0,6.244826317E-4,2.575379237E0,3.127763243E0
1.540937354E1,7.294199798E-1,6.410609499E-1,4.528595433E0,4.631542857E0
1.541930654E1,-1.146013557E0,2.355471157E0,5.674011185E0,6.249479528E0
1.542923754E1,-3.417668313E0,4.454855319E0,8.092917176E0,9.849949291E0
1.543916954E1,-3.718828863E0,6.946620249E0,1.135807841E1,1.382357284E1
1.544910254E1,-6.532825807E-1,9.578937918E0,1.529133198E1,1.805568230E1
1.545903354E1,2.485568928E0,1.060777422E1,2.209403880E1,2.463431504E1
1.546896554E1,3.805901213E0,8.445063400E0,2.932537460E1,3.075356199E1
1.547889754E1,3.789808798E0,4.806496343E0,3.322153577E1,3.378069711E1
1.548882954E1,3.471922288E0,2.022760347E0,3.587540452E1,3.609972927E1
1.549876154E1,2.975761482E0,-1.475439620E-1,3.810895670E1,3.822524698E1
1.550869354E1,2.582597332E0,-1.929533364E0,3.899745983E1,3.913048404E1
1.551862554E1,2.671140257E0,-3.110048051E0,3.681845516E1,3.704599883E1
1.552855754E1,2.486803568E0,-3.008260891E0,3.136783743E1,3.160973032E1
1.553848954E1,1.579702199E0,-1.929945154E0,2.467794445E1,2.480365073E1
1.554842154E1,9.112210972E-1,-9.598317052E-1,1.849999625E1,1.854727640E1
1.555835354E1,5.937861382E-1,-2.039282240E-1,1.328422141E1,1.329904911E1
1.556828554E1,2.196036773E-1,4.152876744E-1,8.645700665E0,8.658454228E0
1.557821754E1,-1.517411939E-1,9.004465060E-1,4.049238939E0,4.150923426E0
1.558814954E1,-4.507012629E-1,1.213935033E0,-2.480283630E-1,1.318441490E0
1.559808154E1,-7.512863005E-1,1.370202456E0,-4.150172406E0,4.434615753E0
1.560801354E1,-7.887262416E-1,1.265633482E0,-7.225366960E0,7.377658497E0
1.561794554E1,4.229210682E-2,8.966931783E-1,-9.056299165E0,9.100681394E0
1.562787754E1,9.569393800E-1,4.714563203E-1,-9.799368593E0,9.857262746E0
1.563780954E1,1.543455456E0,-3.351258561E-2,-9.963854277E0,1.008274615E1
1.564774154E1,1.593708620E0,-5.599451584E-1,-9.686501543E0,9.832688233E0
1.565767354E1,1.340301257E0,-1.081840584E0,-9.025708871E0,9.188591140E0
1.566760554E1,8.445373303E-1,-1.563496056E0,-8.474343917E0,8.658652785E0
1.567753754E1,2.070854281E-1,-1.906459813E0,-8.214597149E0,8.435465590E0
1.568746954E1,-4.417979269E-1,-2.041964065E0,-8.027179855E0,8.294601803E0
1.569740154E1,-1.035701813E0,-2.151421457E0,-7.790954681E0,8.148635921E0
1.570733354E1,-1.638378570E0,-2.303938476E0,-7.703200838E0,8.205590776E0
1.571726554E1,-2.195668215E0,-2.348466485E0,-7.712189178E0,8.355484167E0
1.572719754E1,-2.689558986E0,-2.387019371E0,-7.849270132E0,8.633807423E0
1.573712954E1,-3.041305261E0,-2.422402481E0,-8.030373604E0,8.922133808E0
1.574706154E1,-3.207176735E0,-2.361642455E0,-8.299285297E0,9.205513247E0
1.575699354E1,-3.195433480E0,-2.190790322E0,-8.778203250E0,9.595165952E0
1.576692554E1,-3.009618322E0,-1.967357248E0,-9.392560843E0,1.005726087E1
1.577685754E1,-2.726889950E0,-1.837351863E0,-9.982661262E0,1.051024817E1
1.578678954E1,-2.372957987E0,-1.758899917E0,-1.055896167E1,1.096432077E1
1.579672154E1,-2.051038506E0,-1.655341050E0,-1.106326180E1,1.137289209E1
1.580665354E1,-1.921020842E0,-1.572379585E0,-1.143688251E1,1.170320384E1
1.581658554E1,-1.757047812E0,-1.496837652E0,-1.152689571E1,1.175572476E1
1.582651754E1,-1.566643613E0,-1.506661559E0,-1.151280392E1,1.171618775E1
1.583644954E1,-1.410643700E0,-1.635825968E0,-1.152476616E1,1.172544571E1
1.584638254E1,-1.388035148E0,-1.851518790E0,-1.138196429E1,1.161481272E1
1.585631354E1,-1.433132091E0,-2.026062562E0,-1.108415273E1,1.135857556E1
1.586624554E1,-1.398123349E0,-2.180342809E0,-1.065709900E1,1.096733343E1
1.587617754E1,-1.386502885E0,-2.348020489E0,-1.027038403E1,1.062621187E1
1.588611054E1,-1.475017451E0,-2.473499106E0,-9.747469291E0,1.016400668E1
1.589604154E1,-1.574005696E0,-2.566211388E0,-9.320369949E0,9.794500028E0
1.590597354E1,-1.702971299E0,-2.613821464E0,-9.241369388E0,9.753721446E0
1.591590654E1,-1.801343686E0,-2.577566680E0,-9.325710796E0,9.841624404E0
1.592583854E1,-1.728673759E0,-2.492437945E0,-9.306440127E0,9.788278077E0
1.593577054E1,-1.615216579E0,-2.463896808E0,-9.325013807E0,9.779345305E0
1.594570154E1,-1.499430600E0,-2.366733041E0,-9.548044739E0,9.950621877E0
1.595563354E1,-1.184585080E0,-2.104696503E0,-9.892361541E0,1.018291736E1
1.596556654E1,-4.935365029E-1,-1.679492097E0,-1.008805849E1,1.023880834E1
1.597549854E1,2.770076023E-1,-1.202515421E0,-9.975290262E0,1.005132789E1
1.598543054E1,5.531815378E-1,-8.997859168E-1,-9.691949978E0,9.749334280E0
1.599536254E1,3.804208005E-1,-7.029610366E-1,-9.278834837E0,9.313197632E0
1.600529454E1,-1.627221644E-2,-7.147661264E-1,-8.425705023E0,8.455983712E0
1.601522654E1,-8.325692493E-1,-1.359244189E0,-6.577688423E0,6.768064813E0
1.602515854E1,-1.910995644E0,-2.006378788E0,-3.979667598E0,4.849248847E0
1.603509054E1,-2.975132029E0,-1.653828522E0,4.118036109E-1,3.428723025E0
1.604502254E1,-4.107561407E0,6.169503216E-1,8.015807605E0,9.028059590E0
1.605495454E1,-4.113398975E0,4.620165753E0,1.640407934E1,1.753167994E1
1.606488654E1,-2.662186708E0,7.890187193E0,2.087423477E1,2.247389529E1
1.607481854E1,1.884813969E-1,1.010925933E1,2.449330809E1,2.649820354E1
1.608475054E1,2.860457897E0,1.177331492E1,3.169028331E1,3.392738157E1
1.609468254E1,5.628699941E0,9.692382088E0,3.932678204E1,4.089279055E1
1.610461454E1,7.520047917E0,5.071763760E0,4.573312248E1,4.662394664E1
1.611454654E1,9.091485955E0,1.848733761E0,5.130896652E1,5.214099135E1
1.612447854E1,9.641918278E0,5.735796958E-1,5.062295247E1,5.153619018E1
1.613441054E1,8.665356081E0,-1.095914394E-3,4.404332861E1,4.488767306E1
1.614434254E1,7.072694989E0,-4.195109721E-1,3.508803250E1,3.579621528E1
1.615427454E1,5.400470250E0,-6.258437173E-1,2.616528900E1,2.672412969E1
1.616420654E1,3.725126606E0,-5.480942409E-1,1.818986928E1,1.857547631E1
1.617413854E1,2.566294126E0,-2.708623248E-1,1.146433752E1,1.175118150E1
1.618407054E1,1.637028594E0,2.419657505E-1,6.631900883E0,6.835240988E0
1.619400254E1,8.133148067E-1,5.891807250E-1,3.024448907E0,3.186833239E0
1.620393454E1,-1.590669237E-2,4.910205191E-1,1.444531238E-1,5.120750707E-1
1.621386654E1,-4.092338327E-1,-9.101922065E-3,-1.824271057E0,1.869630997E0
1.622379854E1,-4.770828035E-1,-7.577788295E-1,-2.594256973E0,2.744450035E0
1.623373054E1,-3.127112127E-1,-1.643089525E0,-2.887274398E0,3.336747659E0
1.624366254E1,-1.739799549E-1,-2.233173134E0,-3.457130587E0,4.119354702E0
1.625359442E1,-1.841396382E-1,-2.425015748E0,-4.237219321E0,4.885553843E0
1.626352642E1,-3.817818131E-1,-2.432466270E0,-4.892760608E0,5.477385861E0
1.627345842E1,-9.590496401E-1,-2.348642779E0,-5.667402661E0,6.209295616E0
1.628339042E1,-1.828986837E0,-2.143267077E0,-6.665096111E0,7.236179433E0
1.629332242E1,-2.689343517E0,-1.908987857E0,-7.903520599E0,8.564020145E0
1.630325442E1,-3.228351257E0,-1.736321186E0,-9.356120995E0,1.004858513E1
1.631318642E1,-3.290537565E0,-1.475819250E0,-1.077318728E1,1.136077656E1
1.632311842E1,-3.014550156E0,-1.172977480E0,-1.177333363E1,1.220961808E1
1.633305042E1,-2.740190904E0,-9.526140484E-1,-1.244546873E1,1.277911623E1
1.634298242E1,-2.461310000E0,-7.935557494E-1,-1.287311888E1,1.313030721E1
