Time (s),Linear Acceleration x (m/s^2),Linear Acceleration y (m/s^2),Linear Acceleration z (m/s^2),Absolute acceleration (m/s^2)
0.000631125001746113,-0.781402384713292,-9.29975617468357,1.96500301301479,9.53715321448482
0.0105621250004333,-0.857621279284358,-10.245208261013,1.83796348214149,10.4440373578371
0.020494125001278,-0.0497870678454638,-9.90453076601029,1.5966931848228,10.0325289719706
0.0304261250003037,1.2410272295773,-7.70518947601318,1.19974223256111,7.89616836639185
0.0403581250011484,2.25312310248613,-3.55094097554684,0.299554758220911,4.21609755341916
0.0502901250001742,2.56747847914696,-0.577003825306892,-0.825964965373278,2.75809667693604
0.0602221250010189,2.76036438256502,1.11939505755901,-2.08854181587696,3.63794773685491
0.0701541250000446,2.91202156841755,2.11236629605293,-3.02392148852348,4.69958106136956
0.0800851250005508,2.89438402712345,2.58218890428543,-3.44756337225437,5.18949435297815
0.0900171250013955,2.24032793283463,2.27326588332653,-3.57140447616577,4.78975332927619
0.0999491250004212,0.840023352876306,1.61280767261982,-2.9579374140501,3.47220125679321
0.109881125001266,0.288998341262341,-0.0257353502511978,-2.25245666608214,2.27106657367916
0.119813125000292,-0.0550469306856394,-1.56741632223129,-1.33422526896,2.05912145346173
0.129745125001136,-0.852802954316139,-2.27643039643764,-0.0220632988214493,2.43102756419389
0.139677125000162,-1.68008500501513,-2.63160547792912,1.10367949604988,3.31151648728255
0.149608125000668,-2.54061110794544,-2.46941657960415,2.09012421861291,4.11355591850553
0.159540125001513,-3.02650771200657,-1.6906247574091,2.54801836073399,4.30236662406138
0.169472125000539,-3.03366148799658,-0.244082077145576,2.21946199759841,3.76678770876736
0.179404125001383,-2.56487617582083,1.77820844650269,1.35532670080662,3.40257630956693
0.189336125000409,-1.79889516457915,3.7841156566143,0.149462360367179,4.19259992283384
0.199268625001423,-1.37022745281458,4.60966181516647,-0.836580293029547,4.88122647593164
0.209200625000449,-1.10891472749412,3.65804559409618,-1.18489088952541,4.0018690460109
0.219131625000955,-0.599552662298083,1.48548689067364,-0.762373425364494,1.77407664347794
0.229063624999981,-0.357326527945697,-0.426590049862862,-0.201267009973526,0.591751406858834
0.238995625000825,-0.315298276729882,-1.63072237193584,0.163896285295486,1.66899084778035
0.24892762500167,-0.301197862364352,-2.15536321163178,0.473470247536898,2.22721458365626
0.258859625000696,-0.35142953786999,-2.12459282398224,0.760355551242828,2.28375523034105
0.268791625001541,-0.457265200987458,-1.78258567214012,0.938012673854828,2.06556794099483
0.278723625000566,-0.474172790497541,-1.26955623328686,0.846035971641541,1.59762002054218
0.288654625001072,-0.465691586919129,-0.773214747905731,0.679137141108513,1.12958264723712
0.298586625000098,-0.38861417490989,-0.333874844312668,0.0361350618302822,0.513613795861424
0.308518625000943,-0.341523587107658,-0.0289290994405746,-0.762206048816443,0.835723228226725
0.318450624999969,-0.252906037196517,0.25208106815815,-1.17691864952445,1.22989586395461
0.328382625000813,-0.0384506323188543,0.42632458627224,-1.24132426813245,1.31305637450967
0.338314625001658,0.149865781702101,0.442370515465736,-1.03539454221725,1.13586675430346
0.348246625000684,0.401825922131538,0.480282107591629,-0.916886245161295,1.11032218798667
0.358178625001528,0.799950045123696,0.510768320560455,-0.677337514311075,1.16601477703958
0.368109625000216,1.36580461889505,0.605838199853897,-0.393586172014475,1.5451123765598
0.37804162500106,1.87439616724849,0.561595242619515,-0.286469274312258,1.97757802714676
0.387973625000086,1.98483793795109,0.317357629537582,-0.188777942061424,2.01889440446116
0.397905625000931,1.76627135574818,0.0538873547315598,-0.101896503567696,1.77002860049655
0.407837624999956,1.32459563568234,0.0866352707147598,-0.145761584490538,1.33540469810231
0.417769625000801,0.852610434740782,0.343922699689865,-0.316269462704658,0.97224161083052
0.427701625001646,0.538830570280552,0.564311274290085,-0.472759810835123,0.912297888028152
0.437632625000333,0.351056814417243,0.521987957954407,-0.501134009510279,0.804268369815724
0.447564625001178,0.2253152192384,0.189923411607742,-0.408242071866989,0.503487278428586
0.457496625000204,0.238878274485469,0.0230754518508911,-0.416204225420952,0.480438616014088
0.467428625001048,0.538109535500407,0.180237498879433,-0.461371188908815,0.731375964982383
0.477360625000074,0.803190937489271,0.222327511310577,-0.264988211989403,0.874507836925313
0.487292625000919,0.794117374420166,0.151722382307053,0.052739692479372,0.810199704277732
0.497224624999944,0.678504764735699,0.0441341990232468,0.426835632920265,0.80281081259716
0.507156625000789,0.49659043058753,-0.142465070486069,0.72296596929431,0.888582097961336
0.517087625001295,0.293249340131879,-0.178063504099846,0.759680782556534,0.833556643765621
0.527019625000321,0.190903478041291,-0.00546012997627258,0.618884507417679,0.647682008758343
0.536951625001166,0.212075441926718,0.273438608050346,0.385615539997816,0.518115826942906
0.546883625000191,0.265312440097332,0.625483675003052,0.036496127396822,0.680406118344543
0.556815625001036,0.473158079311252,0.799109727144241,-0.22707545042038,0.956042982411186
0.566747625000062,0.684058450162411,0.761029150485993,-0.409850202351809,1.10230600084362
0.576679625000907,0.773886300623417,0.703302513957024,-0.580111035704613,1.1958525185729
0.586610625001413,0.637143973186612,0.386960545778275,-0.482212712019682,0.887817552310394
0.596542625000438,0.242419494464993,0.12195654630661,-0.1745377792418,0.322651587422654
0.606474625001283,-0.0472522998601198,0.178222548365593,-0.00544171124696732,0.184460480345499
0.616406625000309,-0.132262702435255,0.286479068398476,-0.0667803190648556,0.32252641767821
0.626338625001154,-0.0198540745675564,0.25900651037693,-0.255123520642519,0.364096920447843
0.636270625000179,0.187501714155078,0.114377385377884,-0.509505321979523,0.554828579132718
0.646202625001024,0.389614816233516,-0.0399657189846039,-0.737586493492126,0.835123223904498
0.65613362500153,0.527277605049312,-0.152291901111603,-0.88077091768384,1.03777256919248
0.666065625000556,0.596750640012324,-0.299949883818626,-0.972664004713297,1.17989682821119
0.675997625001401,0.643996252119541,-0.465016196966171,-0.933333878070116,1.22559510611715
0.685929625000426,0.558516464307904,-0.578728169202805,-0.837487342357636,1.16114253360261
0.695861625001271,0.347759459875524,-0.59582718193531,-0.633097919225693,0.936354445706214
0.705793625000297,0.129146903939545,-0.446290488839149,-0.427440381199121,0.631315612594135
0.715725625001141,-0.0254440858215094,-0.224792697429657,-0.262575650811195,0.34659072509217
0.725657625000167,-0.102361576482654,-0.0414462339878082,-0.125402164310217,0.167096934338943
0.735588625000673,-0.20183696731925,0.0110372042655945,-0.0134487421810627,0.20258541388976
0.745520625001518,-0.278893438987434,0.00195004642009735,0.0711908738315105,0.287842827786575
0.755452625000544,-0.367064700163901,-0.17325943171978,0.171054154336452,0.440471166482024
0.765384625001389,-0.49201154910028,-0.428154764771462,0.271377610713243,0.706425986668803
0.775316625000414,-0.644773858711123,-0.652011322975159,0.38050054192543,0.992790389040202
0.785248625001259,-0.819269318729639,-0.763627653121948,0.500255611538887,1.22661529670081
0.795180625000285,-0.936235851198435,-0.640757771730423,0.517197334170342,1.24683646625173
0.805111625000791,-0.983733514845371,-0.406803656816483,0.439180274605751,1.15156422184439
0.815043625001636,-1.02392493635416,-0.218604004383087,0.372689246535301,1.11135379627877
0.824975625000661,-0.938562823757529,0.0737216949462891,0.196073074489832,0.961654674498781
0.834907625001506,-0.745669538229704,0.330577014684677,0.0105887228250504,0.815730558415338
0.844839625000532,-0.556260243058205,0.331727746725082,-0.120112480670214,0.658707646810955
0.854771625001376,-0.40774790905416,0.127817210555077,-0.124305372834206,0.445025192958299
0.864703625000402,-0.33316345743835,-0.0924222600460053,-0.0928358043730259,0.357991969320365
0.874634625000908,-0.248440463785082,-0.224682185053825,-0.0172609806060791,0.335414206284993
0.884566625001753,-0.125876611042768,-0.010699235200882,-0.0301979452371597,0.129889609815576
0.894498625000779,-0.0171736926399171,0.333833913803101,-0.0511303925514221,0.338163177721125
0.904430625001623,0.0367976244539022,0.479444786310196,-0.0543774975836277,0.483919704629743
0.914362625000649,0.159461574219167,0.474146624207497,-0.00617012813687325,0.500281006416439
0.924294625001494,0.340507194846869,0.474339582324028,0.105844982117414,0.593419202032806
0.93422662500052,0.462717583402991,0.460571143627167,0.251346073150635,0.699577150013195
0.944158625001364,0.493746125623584,0.27374324798584,0.40655149564147,0.695704478204972
0.954089625000051,0.437920638173819,0.0957943493127823,0.44753769993782,0.633435896965477
0.964021625000896,0.437084267064929,0.131040780544281,0.19761191546917,0.497257289355053
0.973953625001741,0.386151875853539,0.127277512550354,-0.182116793990135,0.445510227805667
0.983885625000767,0.175811174903065,-0.114821189045906,-0.466348192691803,0.511443165465746
0.993817625001611,-0.124109673835337,-0.294092143177986,-0.607419286966324,0.686186264797841
1.00374962500064,-0.387690351381898,-0.339491679668426,-0.783126363158226,0.937467497992404
1.01368162500148,-0.603938110582531,-0.432338447570801,-0.935796579122543,1.19472717059561
1.02361262500017,-0.800341150760651,-0.404061897397041,-1.02588039144874,1.36243992604738
1.03354462500101,-0.945117698684335,-0.360287302136421,-0.991529899835587,1.41639893628705
1.04347662500004,-1.06656648740172,-0.475925931930542,-0.832793782353401,1.43443893165896
1.05340862500088,-1.21993478782475,-0.578284950256348,-0.606656298413873,1.48009669773405
1.06334062500173,-1.24145568430424,-0.576362385749817,-0.488812610507011,1.45339037563526
1.07327262500075,-1.11164354994893,-0.473190019726753,-0.528694787397981,1.31877911536916
1.0832046250016,-0.893690194487572,-0.291134621500969,-0.613254296556115,1.12228443979424
1.09313662500063,-0.661499745994806,-0.0608958274126053,-0.661101477518678,0.937200821235683
1.10306762500113,-0.478178096674383,0.102199389338493,-0.600122546553612,0.774109861842806
1.11299962500016,-0.327062545716763,0.141934143304825,-0.479319071173668,0.597379261304903
1.122931625001,-0.265324536524713,-0.102769492864609,-0.291647495403886,0.407451763919439
1.13286362500003,-0.429716556072235,-0.467672587037087,-0.0485242885351181,0.636968267503479
1.14279562500087,-0.632796349078417,-0.511386371254921,0.0110377158969641,0.813676269338409
1.15272762500172,-0.622983551770449,-0.193491967320442,-0.255674839988351,0.700654887228461
1.16265962500074,-0.492122280746698,0.301265507340431,-0.709167344346642,0.914255745077978
1.17259062500125,-0.361722172312438,0.735334730744362,-1.10505125284195,1.37575374525708
1.18252262500027,-0.291559165902436,0.99401672065258,-1.37973999559879,1.72532850310125
1.19245462500112,-0.367829589061439,1.12313493669033,-1.54446483135223,1.94476278961918
1.20238625000093,-0.512920022830367,1.1140752607584,-1.65927783429623,2.06335977663639
1.21231824999995,-0.389677308350801,1.15973499834538,-1.90453286290169,2.26364288192797
1.2222502500008,-0.623057884499431,0.803851234316826,-1.86822516202927,2.12712086877753
1.23218225000164,-1.03332228899002,0.212259775400162,-1.82629887163639,2.10907011114303
1.24211425000067,-1.11457468606532,-0.0861365032196045,-1.70461363613606,2.03848077658473
1.25204525000117,-0.900723590925336,-0.052605060338974,-1.42951500356197,1.69043882617251
1.2619772500002,-0.587521065920591,0.0483015096187592,-1.48618855655193,1.59883409532004
1.27190925000104,-0.114543957933784,0.399555448293686,-1.87084354519844,1.91646039488714
1.28184125000007,0.412060669139028,0.661732318997383,-2.26331216812134,2.39379732379813
1.29177325000092,1.11745253942907,0.949536366462707,-2.80272015094757,3.1631566090915
1.30170524999994,1.93689837098122,1.1465623909235,-3.20197154402733,3.91392416693919
1.31163725000079,2.54656912833452,1.19905050694942,-3.09541188597679,4.18381538639655
1.32156825000129,2.93369924336672,1.42391044735909,-3.09923713445663,4.49882018180587
1.33150025000032,2.97674849152565,1.62904246687889,-2.42739337161183,4.17217563403558
1.34143225000116,3.01733372300863,1.76506858348846,-1.2623881316185,3.7166374177843
1.35136425000019,3.07676686942577,1.7446711564064,-0.393987875729799,3.558875982528
1.36129625000103,2.96146854758263,1.50621643960476,0.24455394744873,3.33148473724097
1.37122825000006,2.67955732405186,1.3305321675539,0.95371259406209,3.14004952410759
1.3811602500009,2.42583552718163,1.31650586664677,1.96644201278687,3.38891721520387
1.39109225000175,2.16037222892046,1.4129773235321,2.76419372409582,3.78212638982854
1.40102325000044,1.67247748509049,1.36150428414345,2.98309973716736,3.68099971417597
1.41095525000128,1.21567267924547,1.58123387753963,2.84129686385393,3.47147353541534
1.42088725000031,0.761584928333759,1.98871405720711,2.89825751513243,3.5965110632973
1.43081925000115,0.4129898647964,2.0685852688551,3.42508345931768,4.02253680483354
1.44075125000018,-0.324343736618757,1.31396349728107,4.44855699062348,4.64987722746482
1.45068325000102,-1.53441346764565,-0.662108294963837,6.25646812319756,6.4758169724398
1.46061525000005,-2.72189759731293,-3.7037298899889,8.37483366250992,9.55322879988564
1.47054725000089,-3.17719279825687,-6.97689011514187,9.39788941025734,12.12814392739
1.4804782500014,-2.59997905790806,-9.6900034403801,8.41192021250725,13.0926108716988
1.49041025000042,-1.53191524475813,-11.6524623298645,6.10997081279755,13.2460705871315
1.50034225000127,-0.497108201533556,-12.9571889805794,3.63142439067364,13.4656268308482
1.51027425000029,0.228749946802855,-13.6110737514496,1.55462407618761,13.7014784320461
1.52020625000114,0.600071968138218,-13.8357764017582,-0.422116637527943,13.8552148111125
1.53013825000016,0.25346086487174,-13.9383810031414,-2.08759310513735,14.0961254382675
1.54007025000101,-0.462604659050703,-13.7038597083092,-2.49575770139694,13.9369501857357
1.55000125000151,-1.27847060590982,-13.165214202404,-1.10224093481898,13.2729908899143
1.55993325000054,-1.27898486852646,-12.5033631849289,0.697073767483234,12.5879229845701
1.56986525000139,-1.19147207692266,-12.2327704167366,1.95998449400067,12.4459558490056
1.57979725000041,-1.36492081224918,-12.0542362117767,2.0492735235393,12.3031354315597
1.58972925000126,-1.54415639072657,-11.7391929101944,1.1459431707859,11.8956401632048
1.59966125000028,-1.72252921253443,-11.0563047802448,-0.687203302010894,11.2107640533549
1.60959325000113,-1.43720292270184,-9.47571643531323,-3.29971477031708,10.1362158505498
1.61952525000015,-0.301973824426532,-6.70741884291172,-5.90539310932159,8.94171815148012
1.62945625000066,1.33355663985014,-3.43357449352741,-7.37071704626083,8.23985903340163
1.6393882500015,2.61713712751865,-0.395695701241493,-7.20125538110733,7.67229176297049
1.64932025000053,3.05290672123432,1.95747589230537,-6.15954876959324,7.14786628040229
1.65925225000137,2.54744884192944,3.82602732896805,-5.0326569968462,6.81583576475864
1.6691842500004,1.52411272019148,5.32406000554562,-4.1018937009573,6.8915938983992
1.67911625000124,0.674509654641151,6.59979674577713,-3.28677839040756,7.40372828697979
1.68904825000027,0.186997830346227,7.83822357237339,-2.69664522707462,8.29123708741756
1.69897925000078,0.077166655138135,9.26291228413582,-2.58902254521847,9.61823977741816
1.70891125000162,0.103551740683615,10.7236952733994,-2.98305471360683,11.1313511625543
1.71884325000065,-0.020039339940995,11.9292285883427,-3.25526949942112,12.3654225888944
1.72877525000149,-0.652767002508044,12.4969487893581,-3.31346742153168,12.9452269256647
1.73870725000052,-1.33466483339667,13.2304855012894,-3.64442684412003,13.7879992689105
1.74863925000136,-2.03969943881035,13.7674446702003,-3.67060599803925,14.3936185492236
1.75857125000039,-3.0305165630579,13.7021055436134,-2.78447040617466,14.306816641383
1.76850325000123,-3.80361875206232,13.1214980792999,-1.25730514705181,13.7194039115741
1.77843425000174,-4.06368360847235,12.2778173661232,0.472351565547287,12.9414620405547
1.78836625000076,-3.9760689291358,11.1621078085899,1.74379407405853,11.9767521737968
1.79829825000161,-3.67548082172871,10.023100605011,2.3077001363039,10.9223250696985
1.80823025000063,-3.54470930546522,8.99408303618431,2.2472972291708,9.92516189078389
1.81816225000148,-3.56668752729893,8.1818007016182,1.72496487021446,9.09057899376402
1.8280942500005,-3.62785934329033,7.59710486412048,1.18387932121754,8.50170194598402
1.83802625000135,-3.626586112082,7.29629602432251,0.655496848225594,8.17421180426127
1.84795825000037,-3.30175077080727,7.40659556150436,-0.205029108524322,8.11179714363992
1.85788925000088,-2.64684390664101,7.89246059060097,-1.71755586326122,8.49980676155258
1.86782125000173,-1.81926233232021,8.56414837896824,-3.58903558552265,9.46232156106161
1.87775325000075,-1.25155236393213,9.15503583312035,-4.60276911735535,10.3231074765819
1.8876852500016,-1.0690030952543,9.58337712407112,-4.36326541006565,10.5840431668861
1.89761725000062,-1.123840476349,9.67026090145111,-3.46774737596512,10.3345166883569
1.90754925000147,-1.35805735051632,9.38976061105728,-2.5998252761364,9.83722600973933
1.91748125000049,-1.9161755463481,8.71057318389416,-2.47709923624992,9.25644826824136
1.927412250001,-2.53461771190166,7.70579524755478,-3.74603157162666,8.9351172280137
1.93734425000002,-3.0700852560997,6.25485136806965,-7.30831906914711,10.0975302293592
1.94727625000087,-3.45360910087824,4.43833839654923,-12.9545097863674,14.1225205735039
1.95720825000171,-3.11573476105928,2.40764893233776,-11.2303483235836,11.9006428377495
1.96714025000074,-1.6725010201335,1.10649083733559,-3.35081943511963,3.90507010464993
1.97707225000158,-0.21987255781889,-0.626661888957024,3.28790924191475,3.35431010012811
1.98700425000061,0.445263133049011,-4.01552506327629,8.16206985712051,9.10725453383005
1.99693625000145,0.486778071820736,-9.42757280051708,10.5560497534275,14.1614359510995
2.00686825000048,1.61555761814117,-16.0793565559387,11.6163826704025,19.9021626969476
2.01679925000099,3.11026147484779,-21.4426098632812,10.8992988538742,24.2539473013543
2.02673125000001,5.36124595820904,-20.1776396012306,4.20130367606878,21.2962684684456
2.03666325000086,5.86962686061859,-15.854931063652,-1.5456179022789,16.9770519589209
2.0465952500017,4.17033419072628,-12.9707100820541,-7.86979561328888,15.7341885806031
2.05652725000073,2.22308244735003,-11.3513564515114,-13.0666114354134,17.4508373226347
2.06645925000157,-0.086838242188096,-10.564208958149,-6.3460767030716,12.3240716207351
2.0763912500006,-1.49066255360842,-11.5937165236473,3.56300115019083,12.2201192660172
2.0863222500011,-2.50992024242878,-14.4274526453018,7.79244864463806,16.5883496869068
2.09625425000013,-3.03270020574331,-16.9959403538704,8.1719025349617,19.1007656938446
2.10618625000097,-2.27865964740515,-17.6933330869675,7.43981183946133,19.3286607327481
2.11611825,0.259605119079351,-16.1203022682667,5.54558352470398,17.049487871124
2.12605025000084,3.57679736316204,-13.3243625485897,2.40199438244104,14.0036314474732
2.13598225000169,4.70299273252487,-11.4205746209621,-0.484404394626617,12.3605142665133
2.14591425000071,4.21750660300255,-10.5026716911793,-0.680245188474655,11.3382630113925
2.15584625000156,2.96175915420055,-10.3511001670361,0.573849106281996,10.781771410686
2.16577725000025,1.58064608618617,-10.6633777356148,1.47491468623281,10.8803235298334
2.17570925000109,0.448085145503283,-11.0293339133263,1.28804688334465,11.1133276584002
2.18564125000012,-0.958708162754774,-11.0515392994881,0.0685186962783337,11.0932563767904
2.19557362500018,-2.5080541035533,-10.4562038683891,-1.65642030000687,10.879626047523
2.20550562500102,-3.36043401181698,-8.87414611816406,-3.69746576786041,10.1840188127675
2.21543762500005,-3.28063179731369,-6.46654396355152,-5.23081972002983,8.94092896546792
2.22536962500089,-2.42318366870284,-3.50648108661175,-5.93288788676262,7.30523013873818
2.23530162500174,-1.40338408917189,-0.826461247801781,-5.89730757951736,6.11806846833965
2.24523262500043,-0.38466470964253,1.48587806940079,-5.10414330124855,5.32992302155022
2.25516462500127,0.489860797002912,3.53587679386139,-4.07600983142853,5.41814031266355
2.2650966250003,1.03486522302032,5.26468737781048,-3.14498691916466,6.21923001163413
2.27502862500114,1.20173876434565,6.88045666515827,-2.40171985566616,7.38600827537805
2.28496062500017,1.15650835856795,8.30982022583485,-1.94549202382565,8.61252361296622
2.29489262500101,1.43585148498416,9.71099319040775,-1.83691156804562,9.98695661049435
2.30482462500004,1.66287825733423,11.1498918056488,-2.12069331586361,11.4709455371533
2.31475662500088,1.59224243044853,12.1587458360195,-3.17189405143261,12.6661457490334
2.32468762500139,0.983299359083176,12.7519400167465,-4.25116142213345,13.4778049124221
2.33461962500041,0.0801719595305622,13.0397937655449,-4.69228589594364,13.8585784235004
2.34455162500126,-0.82124538525939,12.8034282588959,-4.62516161441803,13.6379741575862
2.35448362500028,-1.83788863778114,12.2721946835518,-4.3839440882206,13.1606824581602
2.36441562500113,-2.82837948739529,11.6479400932789,-3.81191507399082,12.5779543437178
2.37434762500015,-3.6737547236681,10.6870870256424,-2.45779289960861,11.5650788497396
2.384279625001,-4.44886338472366,9.34715955197811,-0.384635692834854,10.3590405792367
2.39421162500003,-5.06747482717037,8.23390874862671,1.66380182504654,9.81044295216812
2.40414262500053,-5.26141001343727,7.5779376912117,3.27645688533783,9.7899307813111
2.41407462500138,-4.98009052813053,7.44071289539337,4.30959908008575,9.93670741700311
2.4240066250004,-4.11687046676874,7.76334880650044,4.26307746291161,9.76688469197468
2.43393862500125,-2.99437930852175,8.42529045581818,3.55760387778282,9.623324376712
2.44387062500027,-2.03156947016716,8.88082129955292,2.69161135911942,9.49952805013221
2.45380262500112,-1.27253538966179,9.01038682758808,1.44654268026352,9.21406006202144
2.46373462500014,-0.583878542929888,9.00209196746349,-0.383314222097397,9.02914745346574
2.47366662500099,0.128964891079813,9.20993300199509,-2.63223405361176,9.57956961232408
2.48359762500149,0.832519694119692,9.65484822571278,-4.38331492781639,10.6359124224988
2.49352962500052,1.39483882203698,10.0912230062485,-4.51079124569893,11.1411666697691
2.50346162500136,1.62126537770033,10.2748162221909,-3.35159360647202,10.9285648430007
2.51339362500039,1.40281997904181,10.0879813098907,-2.17134482145309,10.4139334132668
2.52332562500123,1.02741806298494,9.56050983309746,-1.52532338619232,9.73578695213521
2.53325762500026,0.835808241292834,8.74380232572556,-1.70525156736374,8.94765541555849
2.5431896250011,1.24039558410645,7.9097560697794,-3.05625308275223,8.56991862238582
2.55312162500013,2.22985001474619,6.83848593592644,-4.88148249864578,8.6928702031442
2.56305262500064,3.10066736340523,5.37523717582226,-4.26307980179787,7.52868927445707
2.57298462500148,2.67321660339832,3.51163774609566,0.378262520134449,4.42953374551168
2.58291662500051,2.52385474205017,1.07540236115456,5.69802043676376,6.32406276812015
2.59284862500135,2.57058481246233,-1.59954969584942,6.89550213575363,7.53089737094703
2.60278062500038,2.50262759506702,-5.03319084763527,5.96916284322739,8.19921093991836
2.61271262500122,3.3678652381897,-9.83772749662399,4.46350481271744,11.3157533453849
2.62264462500025,4.18405643641949,-16.5482050180435,1.2251378595829,17.1128717741157
2.63257662500109,3.63558293044567,-26.7358041715622,-8.53075200676918,28.2983112171957
2.6425076250016,-3.1921900293231,-31.7596570158005,-26.2311473608017,41.3151180902184
2.65243962500062,-10.5726815736294,-27.1750750780106,-16.7645905888081,33.6350679910599
2.66237162500147,-10.0649994134903,-18.6401130759716,5.48858135819435,21.8833853414888
2.6723036250005,-7.17339690685272,-13.0660571193695,10.7444037723541,18.3744845983023
2.68223562500134,-5.94369704961777,-13.2543538355827,9.07533594489098,17.1279640567433
2.69216762500037,-5.19058853745461,-16.2857036268711,8.25702162265778,18.9827489596337
2.70209962500121,-3.29154971837997,-18.4718945288658,8.74796788215637,20.7019836996687
2.71203162500024,0.186150495707989,-17.9430910563469,9.23677581489086,20.1818531388463
2.72196262500074,4.38496238082647,-16.2666335177422,9.69113019883633,19.4357728329129
2.73189462500159,8.41407198786736,-15.7565446436405,8.97353825926781,19.9897397535484
2.74182662500061,11.2227200460434,-16.0660833764076,5.55444205641747,20.3695927020558
2.75175862500146,12.0790237283707,-14.7242456173897,-0.423484593629837,19.0495554392433
2.76169062500048,9.16351546525955,-11.7542038822174,-6.77390694737434,16.3712290289542
2.77162262500133,2.87938182592392,-9.94124894142151,-5.67964380741119,11.8058300849131
2.78155462500035,-1.68810226857662,-9.05551271438599,-2.34773192882538,9.50598995366637
2.7914866250012,-4.07953657954931,-7.68288761079311,-2.90333552956581,9.17053640422404
2.8014176250017,-5.8583844190836,-6.38129214406014,-3.29452595114708,9.2679802908933
2.81134962500073,-6.77731587409973,-4.75227598965168,-4.27311713218689,9.31534581024951
2.82128162500157,-6.97003600895405,-2.2836809438467,-5.73072625279427,9.30794413411845
2.8312136250006,-6.11344113528729,0.718856692314148,-6.63116705775261,9.04783366373028
2.84114562500145,-4.35434928327799,3.54254320442677,-6.41352141201496,8.52309960861588
2.85107762500047,-1.92468953087926,5.75607042431831,-5.17068227648735,7.97325101350564
2.86100962500132,1.10791755795479,7.69837630033493,-3.4603851467371,8.51274011940584
2.87094162500034,4.30407404601574,9.66907450139523,-2.79983864307404,10.9478377561219
2.88087262500085,6.93632505655289,11.4764447665215,-4.00076025903225,13.9938369441491
2.89080462500169,8.15269735515118,12.8818230485916,-6.15487918317318,16.4405102408464
2.90073662500072,7.58148285806179,13.7922064590454,-7.5763864248991,17.4672686071811
2.91066862500156,5.52432070970535,14.1623679542542,-7.61353437066078,17.0016673002561
2.92060062500059,2.92348620414734,14.0194690203667,-7.47791522026062,16.1558503100352
2.93053262500143,0.689293827787042,13.4178466629982,-7.54521374881268,15.4092175521027
2.94046462500046,-1.48639130875468,12.3050115966797,-6.80923348546028,14.1417230271518
2.9503966250013,-3.65809529542923,10.7416415476799,-4.64160807788372,12.2600591302799
2.96032862500033,-5.25170305073261,9.05520690500736,-1.72716810107231,10.6094423357182
2.97025962500084,-6.3074365478754,7.46516478180885,1.55340639352798,9.89573203196647
2.98019162500168,-7.08511973798275,6.03078957259655,4.3647552806139,10.2771802178486
2.99012362500071,-7.6372436606884,5.13699354350567,6.78302626490593,11.433531331533
3.00005562500155,-7.61630127310753,5.32983705461025,8.27153967440128,12.443214082247
3.00998762500058,-6.03191925466061,7.05798982679844,8.44091597020626,12.5478417549003
3.01991962500142,-3.47336918145418,9.38811812818051,6.61237293720245,11.996855059556
3.02985162500045,-1.52711877375841,10.5923188626766,3.58676394224167,11.2869033049435
3.03978362500129,-0.102614358924329,10.984934835434,0.593699380159378,11.0014454504574
3.04971462499998,0.653290255218744,11.0790527880192,-1.71127595365047,11.2294552061452
3.05964662500082,0.937430144995451,10.9754108905792,-3.47053357422352,11.5491567996804
3.06957862500167,0.884570072963834,10.7005730438232,-4.56119132101536,11.6657273218212
3.07951062500069,0.606300641521812,10.2873924136162,-5.06859515368939,11.4842805596015
3.08944262500154,0.402353925704956,9.77610018253326,-5.30638562679291,11.1306671803936
3.09937462500056,0.405518000274897,9.29066083073616,-5.22692313551903,10.6677808838083
3.10930662500141,0.479039903171361,8.73383106887341,-4.75105801463127,9.95398596677938
3.11923862500043,0.635290113463998,8.16320655584335,-4.05002831339836,9.13478320163962
3.12916962500094,1.0191476149857,7.68400150537491,-3.42105268120766,8.47267032542474
3.13910162499997,1.53192036107183,7.23421028852463,-2.84917277097702,7.9245418776191
3.14903362500081,2.18104886054993,6.76275513768196,-2.41569528579712,7.50515921870898
3.15896562500166,2.93558877110481,6.12615064322949,-2.2960776257515,7.17073047883229
3.16889762500068,3.88367151975632,5.30783982932568,-3.24282253146172,7.33293707171268
3.17882962500153,4.39566629379988,3.9185261875391,-4.14698918223381,7.20237800496769
3.18876162500055,3.76585480213165,1.92479171097279,-3.39047057390213,5.42049593984386
3.19869341666708,3.11808387994766,-0.339543135166168,1.08200503706932,3.31790167474434
3.20862541666793,3.13837196409702,-3.01206684350967,5.65797636508942,7.13684957125418
3.21855641666662,4.21163278251886,-8.37482606112957,6.46951025605202,11.3899133096844
3.22848841666746,5.08901304602623,-14.4286945939064,2.90127233952284,15.5724969948602
3.2384204166683,1.86679771050811,-22.0097710704803,-5.29343287467957,22.7142111433712
3.24835241666733,-11.176034706831,-36.2501245093346,-36.8122664666176,52.8594196063465
3.25828441666818,-18.9390999233723,-33.6243247318268,-24.9354628443718,45.9462950284554
3.2682164166672,-14.2371105730534,-25.253193526268,10.663460766077,30.8889704628393
3.27814841666805,-9.69747384309769,-22.009069404602,14.8727298116684,28.277875221541
3.28808041666707,-5.71422365605831,-20.8287130308151,11.9601895952225,24.6887377900364
3.29801141666758,-3.1299934887886,-21.6234572267532,8.79767740130425,23.5535536455649
3.3079434166666,0.231357348170131,-19.4296953499317,9.70849584460259,21.7214520504127
3.31787541666745,4.86433992415667,-15.7470031571388,14.0947694635391,21.6862269092389
3.32780741666829,9.62677983641625,-12.9554430019856,17.1706949186325,23.5658897006941
3.33773941666732,12.418263977766,-12.78074690938,16.4968302118778,24.2838666365682
3.34767141666816,15.1474846279621,-13.3159519135952,11.0886153244972,23.0156089585786
3.35760341666719,17.2394464802742,-11.4515648639202,-3.132712444067,20.9320505454201
3.36753541666803,12.0585795235634,-9.00741293370724,-14.0929463016987,20.6192619496184
3.37746741666706,3.86299225687981,-9.6587108963728,-9.35312195777893,13.9890777291968
3.38739841666757,-2.31830815494061,-12.3966316187382,-2.11142489433289,12.7870693779447
3.39733041666841,-6.94353876650334,-14.2310844326019,-0.30938319683075,15.8376833120334
3.40726241666744,-9.47729167521,-13.5037141942978,-1.7423509812355,16.5893080470554
3.41719441666828,-10.4320197844505,-10.5516701889038,-3.971421854496,15.3602399754996
3.42712641666731,-9.94594074726105,-5.99295340955257,-6.52659779191017,13.3204244172047
3.43705841666815,-7.61484590113163,-1.06191868185997,-8.43725210487843,11.4149363759129
3.44699041666718,-4.33306103289127,2.86455796480179,-8.3463477820158,9.8306984261969
3.45692241666802,-0.665780784934759,5.55917537748814,-6.49996957182884,8.57888683722775
3.46685441666705,3.09590392917395,7.48512483716011,-5.02510239422321,9.53222791581138
3.47678541666755,6.25709377527237,9.20946580946445,-4.68759175121784,12.0805214885092
3.4867174166684,8.33025682926178,11.0216284525394,-5.12372211813927,14.7350602622181
3.49664941666742,8.98765402257443,12.6270890986919,-6.04556080877781,16.6364091506681
3.50658141666827,8.32130181849003,13.8224482584,-6.90745033621788,17.5504133842444
3.51651341666729,6.9294031226635,14.7061683654785,-7.32895506262779,17.8325993040891
3.52644541666814,4.70036236256361,14.873120405674,-7.05543459355831,17.119645856298
3.53637741666716,2.43251275509596,14.3295819497108,-5.56146573185921,15.5622600622091
3.54630941666801,0.307277577929199,13.2142162084579,-3.31407085418701,13.6269217044915
3.5562404166667,-1.64107267454267,11.672693696022,-1.20605254769325,11.8490278247661
3.56617241666754,-3.72932256817818,9.73721795260906,0.835283526778221,10.4603517552825
3.57610441666839,-5.95655566155911,7.83931934058666,2.49992968976498,10.1580082460449
3.58603641666741,-8.02191794514656,6.19440460681915,3.07033317804337,10.5900312452722
3.59596841666826,-9.62094197630882,4.96000768125057,2.96246257424355,11.2223163924993
3.60590041666728,-10.3576876401901,4.73222179412842,2.78489725291729,11.723108336524
3.61583241666813,-9.78997620999813,5.82836189031601,2.15573100149631,11.5957152719282
3.62576441666715,-8.24386597216129,7.65860061585903,1.18609541594982,11.3146945118254
3.635696416668,-6.73549600303173,8.88896413207054,0.420651032924652,11.1605348007877
3.64562741666668,-5.53469483971596,9.64367302715778,-0.0765856429003179,11.1193139079805
3.65555941666753,-4.37944553285837,10.2101647281647,-0.496912758350372,11.1208780786835
3.66549141666837,-3.10110765874386,10.6157381308079,-0.74105740070343,11.0842199023723
3.6754234166674,-1.79882426708937,10.9243459868431,-0.580385270118713,11.0866564412313
3.68535541666824,-0.639578973054886,10.9606244516373,-0.204676521420479,10.981176717958
3.69528741666727,0.27898805424571,10.878460546732,0.163174154162407,10.883260724884
3.70521941666811,0.967586794272065,10.5858892643452,0.312527829408646,10.6346109174517
3.71515141666714,1.52220828205347,10.1850006508827,0.295127685070038,10.3023519966524
3.72508241666765,2.0599894233048,9.68644307076931,0.201333668231964,9.90511337811669
3.73501441666667,2.56481214880943,9.0838623547554,-0.0397142887115479,9.43908861403211
3.74494641666752,3.24791136324406,8.42601258695126,-0.514899963140488,9.04498415205869
3.75487841666836,4.31690459132195,7.75667537927628,-1.18525400161743,8.95580846369536
3.76481041666739,5.99606412827969,7.26052334368229,-2.37961445689201,9.7123915292809
3.77474241666823,7.58047304391861,6.63797906398773,-2.78626140832901,10.454166167565
3.78467441666726,7.7708010828495,5.38002195239067,-1.84283187389374,9.62943482208895
3.7946064166681,7.14372053325176,3.14170487701893,-0.323501810654998,7.810742987257
3.80453841666713,7.09048689723015,0.319138691425323,0.607568975687027,7.12362225306581
3.81446941666763,7.25709570586681,-4.20389136135578,-1.2160759909451,8.47449004235331
3.82440141666666,6.9626036131382,-10.2838349676132,-2.40624735474587,12.6501042306777
3.8343334166675,5.82789586722851,-16.6427381229401,0.848318870812654,17.6540292107666
3.84426541666835,4.06049979954958,-25.205723490715,5.5742863368988,26.1321415784903
3.85419741666738,-0.455590046793222,-31.7832049226761,2.20356999635696,31.8627587973233
3.86412941666822,-8.12338233947754,-36.0502269172668,-16.6743060708046,40.5418386899588
3.87406141666725,-14.7090218067169,-36.7940114593506,-24.8916040492058,46.7947278432489
3.88399341666809,-13.2911901247501,-31.1130064201355,-5.26064519762993,34.2395866115085
3.89392541666712,-6.3870838111639,-22.7172654533386,5.37337132930756,24.2021095925729
3.90385641666762,-1.66764432281256,-16.8517222881317,7.02133304715157,18.331958417549
3.91378841666665,0.418527506925166,-13.8239603483677,8.75032314062119,16.3659769049264
3.92372041666749,2.77269937634468,-12.1645988988876,9.75196989297867,15.8356005568454
3.93365241666834,4.45198930621147,-11.888294570446,11.252388818264,16.9637263209977
3.94358441666736,5.19537857651711,-11.9003959679604,13.8959395730495,19.018636106867
3.95351641666821,4.91502446651459,-12.7353713464737,15.4110221457481,20.5875387653736
3.96344841666723,4.73948666721582,-12.949505739212,13.8922371160984,19.5741330548381
3.97338041666808,4.75407722443342,-11.5588542544842,9.43660382509232,15.6607105101918
3.9833124166671,3.34030731081963,-9.45962782144547,3.66895006656647,10.6819195860079
3.99324341666761,0.00997482456732541,-7.77473275065422,-4.34979927241802,8.90883396138624
4.00317541666664,-3.95776831358671,-6.12301712036133,-15.3884565711021,17.0282079010378
4.01310741666748,-7.23606385588646,-4.15406840622425,-20.5958067369461,22.2217046959879
4.02303941666833,-8.78784530818462,-2.59165437698364,-15.3436692380905,17.8709564169981
4.03297141666735,-7.4047004789114,-0.370743877887726,-8.47611913204193,11.2610672560796
4.0429034166682,-4.17666935652494,2.75787142217159,-4.01078998804092,6.41380215029545
4.05283541666722,-0.490881574675441,5.97643034756184,-1.76384125292301,6.25058560337565
4.06276741666807,3.04015657514334,8.85290669202805,-1.47518658176065,9.4759001867975
4.07269941666709,6.23041117608547,11.401628472805,-3.19985075891018,13.3811135610706
4.0826304166676,8.6223714441061,13.3108893942833,-6.1785346788168,17.0205568817334
4.09256241666662,9.30859073281288,14.3238820838928,-8.23892390549183,18.9658463165966
4.10249441666747,7.65687100946903,14.2496411561966,-8.83503116905689,18.4319755450745
4.11242641666831,4.55123497456312,13.3205934333801,-8.58580471158028,16.4884199290438
4.12235841666734,2.10017397433519,12.1625243067741,-8.05909161865711,14.7406474061778
4.13229041666818,0.611488875970244,10.828580288887,-7.1846884649992,13.0096817046921
4.14222241666721,-0.321048940233886,9.38833389043808,-5.59605259716511,10.9343353858665
4.15215441666805,-1.13557722687721,8.26663912296295,-3.99734022259712,9.25232872755268
4.16208641666708,-2.57756609559059,7.39487949550152,-2.88178912460804,8.34462691130263
4.17201741666759,-4.70085528284311,6.73872132718563,-2.49666635870934,8.58730157979859
4.18194941666661,-6.70616110682488,6.26149731338024,-2.90104517519474,9.62263002014934
4.19188141666746,-8.37403668701649,6.0448392623663,-3.20097342431545,10.8125299077745
4.20181329166735,-9.13502958476544,6.24541396200657,-1.97833291053772,11.2413416537477
4.21174529166819,-8.82615743458271,7.11304720938206,0.573732308149338,11.3501394010978
4.22167729166722,-7.67487166285515,8.46397446513176,3.18056079447269,11.8599530249928
4.23160929166806,-6.09084398567677,9.71661002576351,4.76014751136303,12.4165170309777
4.24154129166709,-4.73493607163429,10.7222252833843,5.01437216877937,12.7487122046558
4.25147329166794,-3.72789350867271,11.4766821634769,4.17262220621109,12.7680147074336
4.26140429166662,-2.87495665311813,11.8879343819618,2.90724497795105,12.5714133250387
4.27133629166747,-2.19965806290507,12.0181355023384,1.83465044975281,12.3547569307959
4.28126829166831,-1.77352833509445,11.8436990261078,1.21459006726742,12.0371856514683
4.29120029166734,-1.41170306906104,11.3712065792084,0.835084721446037,11.4888907695313
4.30113229166818,-0.85962643571198,10.68817694664,0.438958665132523,10.7316712939484
4.31106429166721,-0.0617094309255481,9.91761449575424,-0.065412198510021,9.91802218670506
4.32099629166805,1.01226763486862,9.08891844213009,-0.83667984187603,9.18330862870766
4.33092829166708,2.28110904604197,8.21937607884407,-1.93290121436119,8.74629685694966
4.34086029166792,3.83504081189632,7.3140195196867,-3.62434282779694,9.0187737801029
4.35079129166661,6.04471939444542,6.23016033053398,-6.96144118666649,11.1272275835969
4.36072329166746,8.79938303411007,4.68012251794338,-10.8532988083363,14.735222549625
4.3706552916683,9.06941563904286,2.49248793840408,-9.22756703495979,13.1762965032471
4.38058729166733,7.06555027663708,-0.762121995091438,-6.872375228405,9.88596843648022
4.39051929166817,6.12307734668255,-5.44746139883995,-2.07326932713389,8.45371856570483
4.4004512916672,7.02643825113773,-11.6675352823734,1.20563871100545,13.6731773470527
4.41038329166804,7.73087220132351,-18.3243973445892,-0.272117575854063,19.8902984143193
4.42031529166707,6.20449514687061,-22.4033869171143,0.0227643799781799,23.2466776895638
4.43024729166791,1.49389474824071,-28.6370614242554,0.854259788095951,28.6887219708539
4.44017829166842,-6.58798127710819,-28.258891582489,0.48075470879674,29.0206405144412
4.45011029166744,-11.4324152326584,-22.1600070905685,4.3914495742321,25.3189822399912
4.46004229166829,-12.417618445158,-19.3166885519028,4.52763561218977,23.4057939129932
4.46997429166731,-10.9654659461975,-20.8270617771149,0.686037147939205,23.5473691238178
4.47990629166816,-6.12941455900669,-23.6233803963661,-0.971745553314686,24.4249485896688
4.48983829166718,-0.0980296484939754,-20.6865087461472,1.29563890814781,20.7272751247411
4.49977029166803,3.72756840348244,-15.7054317927361,4.34786325931549,16.7170352910027
4.50970229166705,5.4330433344841,-12.5162983953953,7.0188070499897,15.3440326447105
4.5196342916679,6.43998591005802,-10.8463324356079,7.75680050969124,14.8082510774437
4.52956529166841,7.11171638309956,-10.0790537810326,7.51968422055244,14.4467811574558
4.53949729166743,7.13355397939682,-10.6068515324593,6.11622148633003,14.1704289659293
4.54942929166828,5.67946078956127,-12.0515067315102,2.8787292766571,13.6301933811697
4.5593612916673,2.50616311401129,-13.0240787887573,-1.46487136244774,13.3436625391348
4.56929329166815,-1.31738660350442,-12.6939964485168,-4.49042071580887,13.529114217236
4.57922529166717,-4.18314105480909,-11.1400006556511,-6.62732894539833,13.620564329089
4.58915729166802,-5.67145361244679,-8.52934048891068,-7.84108461499214,12.8995210451153
4.59908929166704,-6.04703840017319,-5.49923440039158,-8.03833400309086,11.4639899663628
4.60902129166789,-4.9768774831295,-2.0946351993084,-7.74097502052784,9.43819370264773
4.61895329166691,-2.91842280775309,1.09652601242065,-6.82387198984623,7.50231896912791
4.62888429166742,-0.304509286768734,3.72509152293205,-5.41632029771805,6.58069588473903
4.63881629166826,2.50786026835442,5.92645302593708,-3.93048783659935,7.54061955199206
4.64874829166729,5.17382983267307,8.08864461600781,-2.97440141916275,10.0519525796657
4.65868029166813,7.04224561393261,10.2986868953705,-2.53458087444305,12.7310751810254
4.66861229166716,7.08180085837841,11.9204238510132,-2.52040430009365,14.0925812405487
4.678544291668,5.74968292593956,13.3550884974003,-3.17513691723347,14.8828336335999
4.68847629166703,3.55014341533184,14.170476872921,-4.62342791497707,15.3225983031731
4.69840829166787,1.14573471754789,14.3806655645371,-5.58719523489475,15.4703910976706
4.7083402916669,-0.696645532026887,14.1137249672413,-5.55816556334496,15.1847210009857
4.71827129166741,-1.73210125073791,13.6399730300903,-4.82971066653729,14.5730965867541
4.72820329166825,-2.26628445401788,12.9579210519791,-3.90738724172115,13.7226614864832
4.73813529166728,-2.89223839133978,11.8175455999374,-2.97699992179871,12.5252527101584
4.74806729166812,-3.72288975387812,9.94975547075272,-1.97228572010994,10.8049735311593
4.75799929166715,-4.4838820669055,8.23970743238926,-0.886597521901131,9.42252790535155
4.76793129166799,-5.1077346611023,7.15465131819248,0.11469898223877,8.79153824479345
4.77786329166702,-5.62834326088429,6.64986352980137,0.818862206339836,8.75039817038605
4.78779529166786,-5.81978928744793,6.79369626402855,1.37509145915508,9.05069791779675
4.79772729166689,-5.6403458404541,7.4046735817194,1.83732379674912,9.48780537246848
4.80765929166773,-5.15972927212715,8.27783244788647,1.8919560867548,9.93603613274108
4.81759029166824,-4.62460876017809,9.08039787948132,1.44856055438519,10.2926653260526
4.82752229166726,-4.05468532830477,9.70698375463486,0.860157582163811,10.5548982842313
4.83745429166811,-3.40034242808819,10.2640690398216,0.323697180747986,10.8174960941664
4.84738629166714,-2.63695217192173,10.6914700984955,0.00115599453449249,11.0118595595998
4.85731829166798,-1.74922672212124,10.9402293634415,0.0188058172655292,11.0792042272382
4.86725029166701,-0.787557748630643,10.9486166095734,0.291829855442047,10.9807840127826
4.87718229166785,0.149809867702425,10.6982294797897,0.544728949069977,10.713136171386
4.88711429166688,0.997216609418392,10.2666324591637,0.698025401830673,10.3385406358564
4.89704629166772,1.72649713307619,9.61353530824185,0.62135320186615,9.78707991562357
4.90697829166675,2.42544200956821,8.87395666837692,0.285465745925903,9.20387780156313
4.91690929166725,3.22027566790581,8.07390553951264,-0.456319011859596,8.70438700190103
4.9268412916681,4.279740858078,7.20982038259506,-2.14086211681366,8.6533798232132
4.93677329166712,5.94951035141945,6.26381631910801,-4.65397669315338,9.81282667540734
4.94670529166797,7.20414039731026,5.00564519941807,-5.31367710471153,10.2562803734956
4.95663729166699,6.30434863328934,2.91744603037834,-3.56712782263756,7.80901427411056
4.96656929166784,5.30636516153812,-0.199407595396042,-1.08307025358081,5.41943869703116
4.97650129166686,4.75139335244894,-4.15475253045559,-0.542146818637848,6.33495308206637
4.98643329166771,4.82655843257904,-9.51541552126408,-2.04788437128067,10.8642822700604
4.99636529166673,4.64903579592705,-17.2990108966827,-2.06352216482162,18.0312904574262
5.00629729166758,1.3240057978034,-25.1244378376007,-2.79638469278812,25.3142279234058
5.01622829166809,-4.79261885404587,-28.2439273881912,-1.75059774801135,28.7011014120524
5.02616029166711,-10.7331724405289,-24.3300772190094,4.24708415865898,26.9293774894969
5.03609229166796,-13.2304340457916,-21.3733811688423,6.38367137610912,25.9348620175011
5.04602429166698,-13.0328519511223,-21.1707096576691,4.66979955106974,25.2954779602277
5.05595629166783,-11.6805640482903,-23.6418412256241,1.41848627775908,26.4080354502947
5.06588829166685,-7.86632353663445,-24.7317692399025,-1.04584380894899,25.973702951091
5.0758202916677,-1.03942539341748,-21.1024305510521,-0.85103884935379,21.1451471367207
5.08575229166672,4.53360357284546,-16.6687605714798,1.35524045437574,17.3273719021153
5.09568429166757,7.27312701702118,-14.2846028280258,3.52615638256073,16.412861828287
5.10561629166841,8.58028318583965,-13.5672944784164,5.45485578775406,16.9542971154355
5.1155472916671,9.87960057735443,-12.9497747111321,6.75985024094582,17.6351565889604
5.12547929166794,10.0925690352917,-12.6116676521301,6.23402417063713,17.3140742767265
5.13541129166697,8.6720318466425,-11.8801669406891,4.43762503623962,15.3634312199484
5.14534329166781,6.92140413165093,-10.5093503808975,2.2902830350399,12.7905307537528
5.15527529166684,4.50887482076883,-9.43518996834755,0.0737602500244975,10.4574472249518
5.16520729166768,1.78768152058125,-8.6835315656662,-3.01986585974693,9.36584835889489
5.17513929166671,-1.05191511914134,-7.54753216981888,-7.47543132305145,10.6749164276817
5.18507129166756,-3.49614701002836,-5.31443022608757,-11.4539025807381,13.1018356298925
5.1950032916684,-4.73694254368544,-1.87045119702816,-12.0066211652756,13.0420920158188
5.20493525000165,-3.89053527384996,2.21046094000339,-9.52403256297112,10.5228132428969
5.21486625000034,-2.12647650450468,5.80554839372635,-6.46665798425675,8.94672900905468
5.22479825000119,-0.542421345412731,8.3671282017231,-3.85783735156059,9.22962427681243
5.23473025000021,0.979763840138912,10.5273469412327,-1.74339295506477,10.7156142987369
5.24466225000106,1.84305319100618,12.5193214058876,-1.25589231356978,12.716427133125
5.25459425000008,1.73536326617003,14.0854817461967,-2.23371531665325,14.3666894517793
5.26452625000093,0.62867976307869,15.2189761948586,-3.84907003641129,15.7107547498322
5.27445824999995,-0.916902763545513,15.4791936635971,-5.01321675896645,16.2965790712445
5.2843902500008,-2.23539653733373,15.3663505876064,-5.01698821306229,16.3184527082184
5.29432225000164,-2.90770866215229,14.9223130309582,-4.4002876406908,15.8269620325151
5.30425425000067,-3.17732465296984,14.1048898243904,-3.58767786204815,14.8968030580522
5.31418525000117,-3.24092540234327,12.4228587198257,-2.83170596837997,13.1472268911609
5.3241172500002,-3.53828906267881,9.80155720531941,-2.15196130156517,10.64053337872
5.33404925000104,-4.1073702031374,7.20806387901306,-1.76358280599117,8.48156230792072
5.34398125000007,-4.75044464170933,5.45219530463219,-1.4656695073843,7.37843784541649
5.35391325000091,-5.14570531010628,4.81114458739758,-1.1728175586462,7.14149118918239
5.36384524999994,-4.910309856534,5.25147968709469,-0.838311288133264,7.23822820909612
5.37377725000079,-4.14961662858725,6.42477964103222,0.0741660467907786,7.64870003350677
5.38370925000163,-3.14744801223278,7.9638463228941,1.44686661601067,8.6846243585378
5.39364125000066,-2.41016177326441,9.43826092600822,2.3720282793045,10.0257751440245
5.4035732500015,-2.21873124182224,10.4414665460587,2.49746508836746,10.9628611148511
5.41350525000053,-2.22317176356912,10.965640193224,2.03944099187851,11.3730856453706
5.42343625000103,-2.13663823440671,11.2926761341095,1.3840605032444,11.5760693109214
5.43336825000006,-1.91360028639436,11.4946646904945,0.693625372052193,11.6734869923149
5.4433002500009,-1.62399398088455,11.4418234026432,0.146622440814972,11.5574295311446
5.45323225000175,-1.33942052006722,11.240568087101,-0.3392279702425,11.3251708095783
5.46316425000077,-0.876045490354299,10.8711059188843,-0.626669490337372,10.9243358723032
5.47309625000162,-0.228846133500338,10.1951841616631,-0.685197780132294,10.2207458945491
5.48302825000064,0.948453169763088,9.28628126621246,-0.844719178676605,9.37273352129816
5.49296025000149,2.58165651530027,8.22630619883537,-1.69323553919792,8.78658697283493
5.50289225000051,4.65055899560452,7.28801870584488,-3.89174009263516,9.48095757700491
5.51282425000136,7.21563660800457,6.43004681289196,-7.86474011063576,12.4605397428282
5.52275525000005,9.17590922355652,5.17721478581429,-10.8309975278378,15.1099758591942
5.53268725000089,8.83745483994484,3.03614918589592,-10.9762201452255,14.4151385218296
5.54261925000174,6.43132735311985,-0.190851949453354,-9.59146031498909,11.5496539759254
5.55255125000076,3.79337852329016,-4.07559234023094,-3.68119881391525,6.67468338217471
5.56248325000161,2.0540906059742,-7.97651022255421,2.48791073799133,8.60428401369201
5.57241525000063,2.49311651408672,-13.3412411212921,6.64814737200737,15.1129814427596
5.58234725000148,2.77441933482885,-17.0119149470329,4.78152785539627,17.8875840023879
5.5922792500005,1.00653027378023,-18.848700799942,5.1443791615963,19.564029799508
5.60221125000135,-3.05912874341011,-25.7547747015953,7.67978566288948,27.0489518544918
5.61214325000037,-9.91663216352463,-29.5704945588112,3.00649327754974,31.3335721510856
5.62207525000122,-14.1863251662254,-24.7381356883049,-8.30767605185509,29.7026035969481
5.63200625000172,-13.3800479221344,-19.0868216407299,-9.69147927761078,25.2439539956008
5.64193825000075,-8.69078562140465,-17.2086059260368,-1.24173693537712,19.3185864713628
5.65187025000159,-4.40764957755804,-19.0821228182316,2.92427557826042,19.801670982678
5.66180225000062,-1.77449926525354,-20.0610671710968,3.96471948355436,20.5259412517165
5.67173425000146,1.80721736043692,-18.6970731425285,6.55308333992958,19.8944585235434
5.68166625000049,5.25071194767952,-16.0704921770096,9.5954913854599,19.4397569351385
5.69159825000133,6.26923961162567,-13.542896386385,10.503019015789,18.249022337823
5.70153025000036,5.84284602820873,-12.149197332859,8.22375330448151,15.791515568655
5.7114622500012,5.6809845739603,-10.9063108348846,5.64812029838562,13.5322749255893
5.72139425000023,5.61237685382366,-9.9834845495224,2.97964403271675,11.8341461990966
5.73132525000074,4.16782748937607,-10.4725421583653,-0.749510062560439,11.2963131407471
5.74125725000158,2.29329376637936,-10.4391405236721,-5.05214752078056,11.8219730055358
5.75118925000061,0.713961037918925,-9.08361969530582,-7.79068337023258,11.9881872903218
5.76112125000145,-0.463699111640453,-7.03247608602047,-9.15106031119823,11.5504390213435
5.77105325000048,-1.3155210493505,-4.5965313076973,-9.27857697486878,10.4379445472991
5.78098525000132,-1.29826079964638,-1.61339414834976,-8.44509906828404,8.69529873293377
5.79091725000035,-0.0675444587878883,1.67028521776199,-7.48902376055718,7.67332339008184
5.80084925000119,1.70337914273143,4.82553516983986,-6.06886020898819,7.93841006848941
5.81078125000022,3.33934778273106,7.52169273912907,-4.57011592626572,9.41345127227019
5.82071325000106,4.39414631009102,9.75879944086075,-2.91141024202108,11.0913929656638
5.83064525000009,4.93823031127453,11.8769416165352,-1.90269332885742,13.0026190697665
5.84057725000093,4.61370984256268,13.6147481417656,-3.0620143443346,14.6977419122796
5.85050825000144,3.23625581592321,14.7190556287766,-5.51845770657063,16.0492157368615
5.86044025000047,1.23949175074697,15.1213627767563,-7.18746355354786,16.7884360307927
5.87037225000131,-0.784420644342899,14.8690624380112,-7.51770610749722,16.6799352112485
5.88030425000034,-2.2267153224349,13.9314005970955,-6.79497388064861,15.6593056602972
5.89023625000118,-3.3114059856534,12.5051910245419,-5.08318746507168,13.8990649673698
5.90016825000021,-4.2764012208581,10.5947454571724,-2.54008368909359,11.7041985565707
5.91010025000105,-5.09866562962532,8.59248866379261,-0.285938931852579,9.99544965035971
5.92003225000008,-5.69215684890747,7.26023624539375,1.16648736298084,9.29905224737916
5.92996425000092,-6.2847095900774,6.58502434015274,1.73477415919304,9.26658305824854
5.93989624999995,-6.49939888358116,6.68492460429668,2.04625592172146,9.54555216371517
5.94982825000079,-6.08289118766785,7.46832110881805,2.60607361078262,9.97842698275846
5.9597592500013,-5.2010351729393,8.44249705731869,2.84368515908718,10.3156710260166
5.96969125000032,-4.31799919009209,9.28573689043522,2.49515660762787,10.5402008093117
5.97962325000117,-3.60028328955174,9.81723183631897,1.7653439873457,10.6045518569489
5.98955525000019,-2.9379361358285,10.1152328431606,0.568771530389786,10.5485973125977
5.99948725000104,-2.21000719606876,10.216889026165,-0.814652211070061,10.4848753642877
6.00941925000006,-1.56462632328272,10.1548781347275,-1.94729881346226,10.457608623944
6.01935125000091,-1.1320475551486,9.98379445195198,-2.66782664000988,10.3959118073929
6.02928325000175,-0.979476741850376,9.66933002471924,-3.06691840410233,10.1912367410528
6.03921525000078,-0.965703625380993,9.23501463353634,-3.28324550271034,9.8487450878156
6.04914725000162,-0.857003813311458,8.78370080173016,-3.4448338919878,9.47389760625125
6.05907925000065,-0.59477007843554,8.32196606218815,-3.63866499781609,9.10212906702303
6.06901025000116,-0.106074631512165,7.92651009678841,-3.75289094030857,8.77069008412617
6.07894225000018,0.714328827783465,7.51635832428932,-3.76554256081581,8.43713333488521
6.08887425000103,2.02873927161098,7.07525197684765,-4.13397561907768,8.44184387365651
6.09880625000005,4.10103620678186,6.54449319541454,-5.49698848485947,9.47975588065645
6.1087382500009,6.83196336686611,5.72848559975624,-7.07226229548454,11.3801654069239
6.11867025000174,7.33234761714935,4.07370719790459,-3.78980616688728,9.20440344050348
6.12860225000077,5.74396025598049,1.35255044281483,-0.607620358094573,5.93225712711553
6.13853425000161,4.82777114510536,-2.54062455654144,3.37975730538368,6.4175467906442
6.14846625000064,5.02857271671295,-8.66801597893238,4.98703175783157,11.1933699274132
6.15839825000148,6.00303459405899,-16.6958121299744,2.66457617282867,17.9411965375132
6.16833025000051,5.96364950358868,-21.6096203756332,0.7043965280056,22.4284859642666
6.17826125000101,3.07274106144905,-27.1660656881332,1.60570520594716,27.3864045068185
6.18819325000004,-3.30025709956884,-29.7178958487511,-3.69618668943644,30.1281733041291
6.19812491666744,-9.546906285882,-25.5759785413742,-7.46604771137238,28.302225467421
6.20805691666828,-11.4203664600849,-20.2650320863724,-3.09021517306566,23.4658416716763
6.21798891666731,-9.58446587562561,-17.3436181354523,2.23545690983534,19.9414228114533
6.22792091666815,-5.91051643967629,-17.847721799612,3.58203822255135,19.1391320557608
6.23785291666718,-3.05104613721371,-18.3209942650795,5.02650280237198,19.2414511878584
6.24778491666802,-0.865677865371108,-16.6200088262558,7.86812447905541,18.4087336438258
6.25771691666705,1.60501099526882,-14.6580387639999,9.92819093942642,17.7764770421917
6.2676489166679,3.48008909404278,-13.6101709413528,11.5015831160545,18.1558306703613
6.27758091666692,4.81305808871984,-13.3498271727562,11.759810192585,18.4303160437763
6.28751291666777,6.15073526144028,-13.2110166120529,9.80117070436478,17.5620457622784
6.29744391666827,7.38433755040169,-12.286095854044,6.89486361980438,15.9064683927241
6.3073759166673,7.11122346282005,-10.9642146420479,2.95839875936508,13.3990904569852
6.31730791666814,4.88835736244917,-9.635775192976,-0.566354291439057,10.8196561154232
6.32723991666717,1.82948735833168,-8.34941581606865,-4.1040203332901,9.48170614182761
6.33717191666801,-0.925358860641718,-6.9006359910965,-7.67093180894852,10.3594527326555
6.34710391666704,-3.23960977882147,-5.19721518695355,-9.83077164888382,11.5823222382661
6.35703591666788,-4.66907244980335,-3.36803597688675,-9.58694977283478,11.1827326637979
6.36696791666691,-4.51172446131706,-0.884086727499962,-8.18118615925312,9.38451245025245
6.37689991666775,-2.94231657743454,2.11138337910175,-6.06530451714993,7.06421159798831
6.38683191666678,-0.92721695959568,4.68417054533959,-4.00404639422894,6.23165888950338
6.39676391666762,1.15879111155868,7.17160298109055,-2.65042708039284,7.73301040133103
6.40669491666813,3.31246403932571,9.62448480427265,-2.62974138557911,10.5127858113123
6.41662691666716,4.85753259569407,11.7717443597317,-4.30147437393665,13.4414385382941
6.426558916668,5.37648731052876,13.3430444025993,-6.68610574185848,15.8634000050849
6.43649091666703,4.5987605586648,14.036570956707,-8.39621400654316,16.9903011315948
6.44642291666787,2.4069415654242,13.8123150336742,-8.50636034667492,16.399133533096
6.4563549166669,0.261049289982766,13.1905139350891,-7.79758308470249,15.3251462168039
6.46628691666774,-1.31825579211116,12.5448678910732,-7.25583212256432,14.5519280003974
6.47621891666677,-2.34330047026277,11.8349106609821,-6.53218012869358,13.7195315037016
6.48615091666761,-2.74371092766523,10.9418186366558,-4.73795674324036,12.2351779240383
6.49608291666664,-2.98821955919266,9.70712350308895,-2.12818359911442,10.3772283520072
6.50601491666748,-3.90562869161367,8.09977186739445,-0.300056960955262,8.99723701812997
6.51594691666833,-5.14264019966126,6.64959631204605,0.451175179705024,8.41828001311018
6.52587791666701,-6.27547215878964,5.61366908848286,0.606642776727676,8.44173245899724
6.53580991666786,-6.88607057690621,5.37847010135651,0.804696741700172,8.77459090028829
6.54574191666688,-6.7668563747406,6.04671212553978,1.36535058259964,9.17699596485269
6.55567391666773,-5.97290389180184,7.26637406766415,2.06772923648357,9.63074645016327
6.56560591666675,-4.82912740677595,8.6067681491375,2.41374582409859,10.1598768883897
6.5755379166676,-3.81208405852318,9.68257162928581,2.22383527636528,10.6409408212763
6.58546991666663,-2.96981427848339,10.4561407184601,1.64569709122181,10.993588790244
6.59540191666747,-2.25993218511343,11.0135920393467,1.029432721138,11.2900945442375
6.60533391666831,-1.66616410017014,11.4177831602097,0.514708174467087,11.5501861286789
6.61526591666734,-1.22587036952376,11.6054916465282,0.235431158132851,11.6724300105305
6.62519791666819,-0.954467104151845,11.567760733366,0.152875453233719,11.6080776505636
6.63512991666721,-0.787519230097532,11.2213143754005,0.0292179336212575,11.2489526862277
6.64506091666772,-0.601805813759565,10.7313317370415,-0.172844882402569,10.7495826170731
6.65499291666674,-0.162138776723295,10.1368266105652,-0.515351952910423,10.1512132452702
6.66492491666759,0.677957903891802,9.26640482604504,-1.202792724967,9.36870298701126
6.67485691666661,1.92776706665754,8.22751130998135,-2.47509948849678,8.80535891926714
6.68478891666746,3.59719595968723,7.05096556663513,-4.42672582626343,9.06927978039999
6.6947209166683,5.43269951820374,5.45914121210575,-7.65443564414978,10.8584912330965
6.70465291666733,5.61786271154881,3.20883909881115,-8.75597155094147,10.8868759342966
6.71458491666817,3.77134504526854,0.419976264238358,-6.06581614851952,7.15496674070783
6.7245169166672,1.96419463545084,-2.96555107355118,-0.24405576467514,3.56540558030157
6.73444891666804,1.38264240726829,-8.1247020560503,3.21620600581169,8.84683359161818
6.74438091666707,2.87734319418669,-15.2843948435783,3.34753797769547,15.909049000605
6.75431191666758,4.13194721996784,-22.5862106394768,4.02365386247635,23.3109349723351
6.76424391666842,2.82261325567961,-30.8242966389656,1.92356101825833,31.0129730253171
6.77417591666745,-4.89507084310055,-37.7520917773247,-20.5253711771965,43.2489654683694
6.78410791666829,-12.3645701658726,-34.8189015340805,-29.6368557786942,47.3664619733615
6.79403991666732,-8.81103478074074,-22.6451879954338,-0.792593736201525,24.3118711350367
6.80397191666816,-2.06863292366266,-14.8716305351257,9.46473594903946,17.7489679567908
6.81390391666719,1.42249162048101,-15.3682322216034,9.35220569908619,18.046323599711
6.82383591666803,3.23711331009865,-17.1915648007393,10.3311763644218,20.3165451775942
6.83376791666706,4.98441395938397,-16.9026421809197,12.9820712220669,21.8878475056256
6.8436999166679,6.26665280342102,-15.1927993798256,16.9495380198956,23.6088739554037
6.85363191666693,6.39425951421261,-13.9683550000191,18.5691044890881,24.1000650967653
6.86356291666743,6.26241708040237,-13.7227707731724,16.508992420435,22.3624492424226
6.87349491666828,6.81675300478935,-13.1082880496979,11.6313176286221,18.80379979951
6.8834269166673,7.36547267854214,-10.7174831914902,3.53984237551689,13.4775783352103
6.89335891666815,3.66019093751907,-9.9013943195343,-4.73530912399292,11.5696914250024
6.90329091666717,-2.42828039422631,-10.2278408610821,-12.0833494985104,16.0160110344541
6.91322291666802,-7.34675866484642,-9.7669182997942,-15.8425677108765,20.0088607278889
6.92315491666705,-9.70693814635277,-8.16427484214306,-13.1162858712673,18.2460129050698
6.93308691666789,-9.35537722885609,-5.87106702983379,-9.12566585361958,14.3272568356583
6.94301891666692,-7.01693243265152,-2.6541090720892,-6.48698933780193,9.91779544050486
6.95295091666776,-3.22676958560944,1.14057074904442,-4.37635615646839,5.55566708869859
6.96288291666679,0.548240128979087,3.9505741918087,-2.38271815896034,4.64596055827504
6.97281491666763,3.75618935465813,6.10062111496925,-1.82221415296197,7.39236098115552
6.98274591666814,6.13512319564819,8.31395479202271,-2.53289687633514,10.638474866997
6.99267791666716,7.71990048587322,10.4149178481102,-4.2047339451313,13.6289091582566
7.00260991666801,7.95990880787373,12.2401612973213,-7.14367258608341,16.2546533285477
7.01254191666703,6.75929592490196,13.626805100441,-9.86377918124199,18.1293143384438
7.02247391666788,4.42447230935097,14.358861297369,-11.0812080717087,18.6693873842126
7.0324059166669,1.93810085088015,14.0777786242962,-9.64772339344025,17.1761070263086
7.04233791666775,-0.292296645976603,12.8628932726383,-6.47039669394493,14.401579567865
7.05226991666677,-2.40544482439756,11.4715003609657,-3.39300300300121,12.2022110583793
7.06220191666762,-3.95854131549597,10.3521631908417,-0.835631509199738,11.1146575338817
7.07213391666664,-5.12755321383476,9.47085389077663,1.49092421650887,10.8725218050146
7.08206591666749,-6.0994610273838,8.98153432667255,2.95287664890289,11.2512605600176
7.09199791666833,-7.12736060857773,8.67889413893223,3.14945711553097,11.6636852170344
7.10192991666736,-8.02147881925106,8.47135832905769,2.29390830874443,11.8899137808445
7.11186091666787,-8.4955541074276,8.32437043726444,1.40383461713791,11.9766578978155
7.12179291666689,-8.21899659454823,8.37332858920097,1.34905439257622,11.8103549666407
7.13172491666774,-7.37436512410641,8.5228793156147,1.73884382128716,11.4036972358529
7.14165691666676,-6.39252055227757,8.5783138436079,1.71243662595749,10.8344001499228
7.15158891666761,-5.15567481279373,8.76600069522858,1.15340012490749,10.2349442017121
7.16152091666663,-3.57487889170647,9.13694805622101,0.289509095549583,9.81567085780973
7.17145291666748,-2.21722032129765,9.52995813131333,-0.471220092773438,9.7958264742488
7.18138491666832,-1.40883237853646,9.93750672340393,-1.06690401792526,10.0934202692633
7.19131691666735,-0.970854583829641,10.1959314358234,-1.39522459208965,10.3366449164769
7.20125004166766,-0.737657829523087,10.2171112203598,-1.49622296333313,10.3523999110672
7.21118204166669,-0.563790397010744,10.0175235307217,-1.5537005084753,10.1529612709968
7.22111404166753,-0.333394824452698,9.73095032215118,-1.73906660020351,9.89074814769285
7.23104504166804,0.198290247302502,9.29954684436321,-2.15209052503109,9.54737577351021
7.24097704166707,1.3303941732645,8.76838402032852,-2.87609101295471,9.32343319271434
7.25090904166791,2.78557669937611,8.14509831368923,-4.0214775288105,9.50128126109832
7.26084104166694,4.69134683310986,7.56904816925526,-5.5305620276928,10.4826686315648
7.27077304166778,7.39326741814613,6.92638888299465,-7.98457411766052,12.8991740012726
7.28070504166681,7.6218017488718,5.15980996370316,-6.68096428513527,11.3732486361588
7.29063704166765,5.31089090645313,2.69996527612209,-1.4681259226799,6.1360221998748
7.30056904166668,3.44954908668995,-0.408743762969971,3.7098794066906,5.08228940315654
7.31050104166752,2.21748636960983,-4.04758359253407,4.78151849985123,6.64553217600937
7.32043304166837,1.86847571521997,-8.58473876416683,2.17845518186688,9.0517737558314
7.33036504166739,2.49546241700649,-18.6168353104591,-0.632322578430176,18.7939809911217
7.34029704166824,-1.16224506184459,-35.8074224567413,-28.4659485054016,45.7584149735489
7.35022804166692,-9.89990327954292,-40.5541968011856,-47.6734718799591,63.3672698182812
7.36016004166777,-6.08188605129719,-24.5619076251984,3.6977721619606,25.5724492978579
7.37009204166679,-4.75756684273481,-16.7717335474491,16.9150850558281,24.290854058588
7.38002404166764,-3.15537800610065,-13.6819724106789,15.1017827904224,20.620781334786
7.38995604166666,-1.55028281092644,-16.587156829834,13.5897781920433,21.4992841694857
7.39988804166751,0.040352521436289,-19.7342405605316,13.3921797251701,23.8493680549019
7.40982004166835,3.06608371406794,-19.5507806611061,18.0546348810196,26.7881267446472
7.41975204166738,6.34433306336403,-17.1008791637421,22.1347985744476,28.6817004050173
7.42968404166822,6.91503651380539,-15.5343925487995,20.0959165763855,26.3245312378493
7.43961604166725,7.48220883071423,-14.0543160867691,12.1441289663315,20.0246627438298
7.4495480416681,8.5570118522644,-11.6347967219353,-0.762861814051867,14.4628110942475
7.45947904166678,6.03962471544743,-10.2488931763172,-18.2579390609264,21.7914941386659
7.46941104166763,-0.114814437339082,-11.427868437767,-17.1867466950417,20.6396129165607
7.47934304166665,-4.59952917516232,-12.3862493026257,-3.1154315829277,13.5750047649298
7.4892750416675,-7.80641647338867,-12.988291490078,1.26156601309776,15.2061633159923
7.49920704166834,-9.53231865227223,-12.5805628037453,0.908633923530579,15.8101636599507
7.50913904166737,-9.19363856613636,-10.204216940403,-1.98316914260387,13.8773914443505
7.51907104166821,-6.24337796151638,-6.19286035716534,-6.25207335591316,10.7897965236337
7.52900304166724,-1.67059614345431,-2.60925098776817,-9.4153760933876,9.91203254492379
7.53893504166808,2.9822644624114,0.34381628036499,-9.50901515901089,9.97163378051485
7.54886704166711,7.0343431019783,3.28820160269737,-7.93526220917702,11.1023708722382
7.55879904166795,9.62662020742893,6.1472824805975,-6.71356309711933,13.2488802535664
7.56873104166698,9.9253866147995,8.70704029619694,-5.8502965503931,14.4413233431144
7.57866304166782,8.43383791565895,10.7878930234909,-5.26326825857162,14.6700460338602
7.58859404166833,5.9069426214695,12.3009536290169,-5.45446051597595,14.6954608922925
7.59852604166736,3.05962049424648,13.0266948330402,-5.90545742869377,14.6263626129016
7.6084580416682,0.815965057164431,13.5799782586098,-5.70780224382877,14.7533255550565
7.61839004166723,-1.37411000400782,14.0354740190506,-5.54994730174542,15.1553496922608
7.62832204166807,-3.27689250290394,13.799380992651,-4.68234679877758,14.9360407002642
7.6382540416671,-4.75154567241669,12.9871220469475,-2.74459356486797,14.0987701298973
7.64818604166794,-5.8456462597847,11.7636494743824,-0.205297568812966,13.1376244520245
7.65811804166697,-6.66107088804245,10.5022717416286,2.27518377006054,12.6429442100361
7.66805004166781,-7.31167770981789,9.49272364675999,3.95547766685486,12.6181708951413
7.67798204166684,-7.90310603141785,8.88371274769306,4.5237451672554,12.7217808291773
7.68791404166768,-8.26216366410256,8.52970477044582,3.95472220659256,12.5163508905231
7.69784604166671,-8.1526616871357,8.050711389184,2.79992518186569,11.794889888459
7.70777704166721,-7.12821839511395,7.48048273265362,1.82908682405949,10.4935541172626
7.71770904166806,-5.14238175272942,6.99059423446655,1.00240221261978,8.73597779516561
7.72764104166708,-2.8134825360775,6.92018323302269,0.0312364107370377,7.47031429544816
7.73757304166793,-0.586851048097014,7.36706195175648,-1.02481875635684,7.46111583056122
7.74750504166695,0.98236585110426,8.06209884166718,-2.24252940952778,8.42564054246465
7.7574370416678,1.48872873321176,8.84397331595421,-3.47534232437611,9.61822132860334
7.76736904166683,1.10472600147128,9.56599042832852,-4.39268976867199,10.5841539962812
7.77730104166767,0.513849583938718,10.0019009399414,-4.88722914218903,11.1439253629759
7.7872330416667,-0.0605147716775537,10.1298894739151,-5.02839379191399,11.3094238101632
7.79716504166754,-0.587236489243805,9.94695348501205,-5.02110114455223,11.1578755608367
7.80709704166839,-0.895441216304898,9.46653572201729,-4.94263443410397,10.7166575338245
7.81702904166741,-0.849702760577202,8.83933238089085,-4.79063080072403,10.0898927244071
7.82696104166826,-0.228518561515957,7.99736256301403,-4.8121906542778,9.3363380182154
7.83689204166694,1.18888987340033,6.90587392687798,-5.67278853178024,9.01582406390588
7.84682404166779,3.03360155403614,5.89179950237274,-7.7918557369709,10.2288345177042
7.85675604166681,4.22701300621033,4.76496386289597,-9.3531745827198,11.3161121567529
7.86668804166766,3.56091310948133,3.30035971820354,-6.07052549600601,7.7732719134529
7.87662004166668,2.44831383213401,1.69248417198658,-2.21584330201149,3.71062054542269
7.88655204166753,2.25920552238822,-0.861631665229797,1.80974949717522,3.02020064920231
7.89648404166837,2.10978007256985,-4.03033606052399,7.94184968233109,9.15247273102276
7.9064160416674,2.42740009590983,-7.97975191891193,9.22608184218407,12.437415248824
7.91634804166824,3.14424900054932,-12.2441841816902,6.63935315966606,14.2789130689761
7.92628004166727,3.02279882311821,-16.6212788414955,6.20519155025482,17.9974616328844
7.93621204166811,0.424000281505287,-27.267348818779,1.31789940431714,27.3024714391131
7.94614404166714,-9.02527500808239,-39.4555845022202,-29.6256174302101,50.1585082065298
7.95607604166798,-12.8278357064724,-33.5349418544769,-25.395818810463,43.978327698416
7.96600704166667,-4.55750406682491,-19.8900384521484,8.79120921134949,22.2186820568814
7.97593904166752,1.43852410107851,-16.2415583181381,11.8921420383453,20.1811944753289
7.98587104166836,4.73467031568289,-16.661556801796,11.5525451087952,20.8203236417792
7.99580304166739,6.57327085196972,-16.4726215696335,12.7294434392452,21.8310302400655
8.00573504166823,7.6515330862999,-14.1960900163651,15.8477997994423,22.6103447299391
8.01566704166726,7.60997458577156,-13.7576564311981,16.9200949501991,23.0970655451884
8.0255990416681,6.92258409976959,-14.3208345150948,14.3247229135036,21.4057505912726
8.03553104166713,6.84188901543617,-14.2314937376976,10.6325126230717,19.0367324923541
8.04546304166797,6.08208719551563,-13.1973551774025,4.43063761353493,15.1918569633484
8.055395041667,2.25035035282373,-12.644788620472,-3.72822329163551,13.3736459082467
8.06532704166784,-3.61565035700798,-12.7520639777184,-11.909811154604,17.8194181985351
8.07525904166687,-7.7243981641531,-12.2059866607189,-13.5866288816929,19.8305048278875
8.08519004166737,-9.15081414341927,-10.4852692079544,-9.75449296653271,16.9949522766266
8.09512204166822,-8.57471137404442,-7.56071179389954,-7.15401455640793,13.4859171824491
8.10505404166725,-5.91417738139629,-3.44526775538921,-6.72902722835541,9.59829002712945
8.11498604166809,-2.31329212099314,0.393248641490936,-6.45179377734661,6.86524638133926
8.12491804166712,0.939080229252577,2.85756294071674,-5.22708276450634,6.03074886428958
8.13485004166796,3.71318308353424,5.03525374531746,-4.0591517239809,7.45776250693702
8.14478204166699,5.77828575074673,7.45389368891716,-4.10364786565304,10.2853800682445
8.15471404166783,6.39739654541016,9.6598499339819,-5.29352058291435,12.7381609138845
8.16464604166686,5.7272395581007,11.4175024938583,-6.43846387982368,14.3043508515741
8.1745780416677,4.32359439074993,12.8319860601425,-7.38904455900192,15.4256706239415
8.18451004166673,2.90679883539677,13.8666157865524,-7.9603029102087,16.251121046365
8.19444204166757,1.59212227016687,14.3661843502522,-7.51819902777672,16.2924959024041
8.20437312500144,0.31969969522208,14.1709727168083,-6.19907594740391,15.470850598378
8.21430412500013,-0.999785875976086,13.2985049915314,-4.21546534001827,13.9864203726501
8.22423612500097,-2.26574577927589,11.9632839417458,-1.42738837122917,12.2593313100454
8.234168125,-3.43956613540649,10.2169755649567,1.19479022562504,10.8464154713899
8.24410012500084,-4.44401370406151,8.71483463466167,2.94282645463944,10.2155679261366
8.25403212500169,-5.32331623971462,7.75428211390972,4.01907198429108,10.2283687118241
8.26396412500071,-6.05102620124817,7.28489629268646,4.44632978618145,10.4620495435107
8.27389612500156,-6.19879411160946,7.25912118136883,4.7283304721117,10.6525582757111
8.28382812500058,-5.8627353322506,7.81980718195438,5.02838911414146,10.9911667725579
8.29376012500143,-5.19767653226853,8.6701911431551,4.9151419955492,11.2404037573991
8.30369212500045,-4.22458962768316,9.15379856228829,4.2215604776144,10.9298105430714
8.3136241250013,-2.89789001762867,9.15954052805901,2.74381880879402,9.99117064687213
8.32355612500032,-1.64896159172058,8.96895462691784,0.742195853590965,9.14943037110881
8.33348812500117,-1.11845789507031,8.97333302199841,-0.946193513274193,9.09213592899349
8.34341912500167,-1.10761152930558,9.17319845438004,-2.28976906478405,9.51931801934009
8.3533511250007,-1.18442749768496,9.38831634879112,-3.30524506688118,10.0233725519105
8.36328312500154,-1.21383095249534,9.48948779761791,-3.97776842236519,10.3608110620907
8.37321512500057,-1.19068533405662,9.44926421642304,-4.48600080549717,10.5276079440408
8.38314712500142,-1.11202391132712,9.31755451440811,-5.0184921169281,10.6413665680682
8.39307912500044,-0.91253423564136,9.01100663244724,-5.47842415988445,10.5850881213541
8.40301112500129,-0.378756025135517,8.51377753973007,-5.7894007229805,10.3026707631485
8.41294312500031,0.675036050230265,7.85415957391262,-5.94476767480373,9.87338639925457
8.42287512500116,2.12485214799643,7.22833149790764,-6.33806835651398,9.84555145161166
8.43280712500018,4.11806329876185,6.6641120249033,-8.13021130263805,11.2902245433213
8.44273912500103,6.66852374911308,5.88454953968525,-11.9504773700237,14.8966788798357
8.45267112500005,7.5788714915514,4.21481396019459,-12.5326191437244,15.2404229733348
8.4626031250009,5.23282765388489,1.49773446857929,-10.837470395565,12.1275083330576
8.4725341250014,2.96432198882103,-1.89012941658497,-7.05640464663506,7.88369460354094
8.48246612500043,2.02285068690777,-5.62906363785267,2.8989208817482,6.6469560416144
8.49239812500127,1.10691878043115,-10.6981429409981,9.23771780133247,14.1778334645866
8.5023301250003,1.35246141895652,-18.3721082854271,11.4670915603638,21.6992558304425
8.51226212500114,0.907031859531999,-25.9351987266541,1.43847673863173,25.9908917721734
8.52219412500017,-5.51565805971623,-34.5449150419235,-19.6125518167019,40.1051845507316
8.53212612500101,-10.2722715139389,-30.4773766565323,-12.5764264833927,34.5334121252505
8.54205812500004,-9.63649206161499,-18.8233449339867,9.2714024412632,23.08980720979
8.55199012500088,-7.16071078777313,-12.0723497164249,10.7118078839779,17.6567334126403
8.56192212500173,-3.23148536503315,-10.8365675854683,7.54566807746887,13.5945136519913
8.57185412500076,-0.660093490630388,-13.5250998008251,5.55271245002747,14.635459117887
8.5817861250016,0.00597156948409975,-16.0554414439201,5.5813544511795,16.9979043746131
8.59171812500063,-0.328749467432499,-17.0325018239021,8.12016987919808,18.8719726965837
8.60164912500113,-0.962904270887375,-17.1069696235657,12.3143308889866,21.1001976194523
8.61158112500016,-0.250177580192685,-16.8314254331589,13.5280234086514,21.5955293586112
8.621513125001,1.01818143568933,-16.4428966641426,11.0222459185123,19.8215904818916
8.63144512500003,3.39938231527805,-14.8486299276352,5.79336981296539,16.2972618756363
8.64137712500087,3.94600488513708,-13.6491742086411,-0.1710415828228,14.2091578341017
8.65130912500172,3.50864280223846,-12.1701864981651,-5.52010252833366,13.8164954180551
8.66124112500074,2.29644468471408,-10.9918111610413,-7.26877551913262,13.3764221052374
8.67117312500159,1.25407280623913,-10.2577832829952,-6.86532114744187,12.4067502167875
8.68110512500061,0.553309884220362,-9.28072816550732,-6.94047190189362,11.6020781470817
8.69103712500146,0.399417673274875,-7.29845598578453,-8.33129821836948,11.0832091136803
8.70096912500048,1.45259615644813,-3.70373456776142,-10.4951334607601,11.2238813117979
8.71090112500133,3.10300858855248,0.308841744661331,-10.4307673108578,10.8869165615033
8.72083212500002,4.4439432451129,3.70911985337734,-8.46805523693562,10.2573954368687
8.73076412500086,5.24559855759144,6.50294697403908,-6.4200235158205,10.5366657685559
8.74069612500171,5.31154404044151,8.80582491159439,-5.41388961017132,11.6217577490811
8.75062812500073,4.82860086500645,10.7886531615257,-4.79644000947476,12.7560283833853
8.76056012500158,4.05023472011089,12.4258057165146,-4.62594046354294,13.8637792165341
8.7704921250006,3.13531854808331,13.9078293013573,-4.35783334672451,14.9080062299246
8.78042412500145,1.90414504632354,15.2040634560585,-3.98238362967968,15.8318884946564
8.79035612500047,0.337527965381742,15.6816780638695,-3.58101788341999,16.0888980700244
8.80028812500132,-1.08080957382917,15.3710833239555,-3.07790590703487,15.713429182054
8.81022012500034,-2.2204582169652,14.3564230084419,-1.91752596080303,14.6531301127426
8.82015212500119,-3.40544324666262,12.6558234858513,-0.545591413378715,13.1173389756314
8.83008412500021,-4.54722027629614,10.5025091385841,1.14088708341122,11.501370952382
8.84001612500106,-5.58007098734379,8.33505797803402,2.54931176483631,10.3493658837301
8.84994812500008,-6.45149206101894,6.5767218786478,3.0319584864378,9.69885522863174
8.85987912500059,-7.21550095260143,5.47869722485542,2.67813645064831,9.44732724779458
8.86981112500143,-7.40560445845127,5.32701518833637,1.54871107935905,9.25303054242929
8.87974312500046,-6.59753562748432,6.05361359417439,0.243100987449288,8.95727704124399
8.8896751250013,-5.32714675068855,7.05132692456245,-0.636069985851646,8.86026460820061
8.89960712500033,-3.62906503915787,7.81106500983238,-1.05814722776413,8.6777027606326
8.90953912500117,-1.61121240600944,8.42018642127514,-1.34298732161522,8.67750884369035
8.9194711250002,0.220913197752088,9.07318416953087,-1.75516924738884,9.24403011149066
8.92940312500105,1.47777485176921,9.80880365967751,-2.31687734127045,10.1864796844208
8.93933512500007,2.17575552240014,10.4806019604206,-2.72052116274834,11.044372546369
8.94926712500092,2.4182613363862,10.9373735833168,-2.8913849902153,11.5686747708516
8.95919912499994,2.18085049375892,11.1019118928909,-2.91566438376904,11.6837346491788
8.96913112500079,1.51548383787274,10.8711316466332,-2.82955068469048,11.3351026293772
8.97906312500163,0.781032767593861,10.3861284971237,-2.55796038150787,10.724963340552
8.98899512500066,0.296534159705043,9.73544273793697,-2.24363628745079,9.99503284646367
8.99892612500116,0.0694945600256324,8.89413073182106,-2.04141735076904,9.12566577125296
9.00885812500019,0.263854071423411,7.95711617767811,-2.09333243966103,8.23209314445668
9.01879012500103,1.09409854084253,7.13137589156628,-2.49166932821274,7.632954196446
9.02872212500006,2.34458378791809,6.38523901462555,-3.82395741462708,7.80326859215714
9.0386541250009,3.7395870628953,5.42238619923592,-6.0421758556366,8.93838198809359
9.04858612500175,4.12584097266197,3.38513498961926,-9.35636716246605,10.7714116581121
9.05851812500077,2.32380950778723,-0.0405457627773285,-14.2023126232624,14.3912271344816
9.06845012500162,0.371282771900296,-3.7835689419508,-8.3184606564045,9.14603917154055
9.07838212500064,-0.795789093375206,-8.07361317873001,0.971698190867901,8.17072257606595
9.08831412500149,-0.744092397987843,-14.7679512155056,6.89440870642662,16.314990898298
9.09824612500051,0.356585649177432,-21.654802980423,6.3648918735981,22.5736460061003
9.10817812500136,-0.885214947760105,-27.7696971487999,-1.42568566203117,27.8203570222728
9.11811012500039,-5.71297527551651,-32.6527443623543,-12.6798836088181,35.4911150744112
9.12804112500089,-8.53843524813652,-27.998893969059,-6.51103367328644,29.9872722912888
9.13797312500174,-5.83542649626732,-18.5540736365318,4.70099298477173,20.0101270847053
9.14790512500076,0.595076984167099,-10.9873625993729,5.94997929811478,12.5091369468552
9.15783712500161,4.67860984325409,-9.34551005244255,5.8870270049572,11.9952088419833
9.16776912500063,6.14982484996319,-9.74612735509873,5.67778439283371,12.8469677246631
9.17770112500148,4.98270014047623,-10.661838748455,6.13041852593422,13.2696698335368
9.1876331250005,2.17177488416433,-12.0902503824234,7.12250975847244,14.199327650164
9.19756512500135,0.0927842026948929,-13.1561662209034,8.29015545487404,15.5505625623733
9.20749841666839,-1.20504682660103,-13.9351311206818,9.50064896285534,16.9086471345374
9.21743041666741,-2.1567592343688,-14.9599889802933,8.79618870019913,17.487876267147
9.22736241666826,-2.36488999843597,-15.4725231599808,5.16461052775383,16.4822595400094
9.23729441666728,-2.97972150832415,-15.5226899313927,0.600816611051559,15.8175100307679
9.24722641666813,-2.90312444508076,-14.5976440429688,-3.0045204269886,15.1837573131632
9.25715841666715,-2.23076466545463,-13.2803061175346,-4.16386892437935,14.0954122319101
9.26708941666766,-1.41636300757527,-11.460811650753,-4.42205390095711,12.3657126186174
9.27702141666669,-0.228944275360554,-9.24235990583897,-4.74618143677712,10.3922986071941
9.28695341666753,1.69230583190918,-6.77890456259251,-5.01550769805908,8.60074203582117
9.29688541666837,4.72380151122808,-3.7112523329258,-6.28727359414101,8.69583255609897
9.3068174166674,8.32763318359852,-0.0593866610527039,-8.83276420354843,12.1396344546106
9.31674941666824,11.1721252584457,3.64029812514782,-9.55215883970261,15.1430476367627
9.32668141666727,11.6175895357132,6.47445992410183,-7.34218731164932,15.1919298460879
9.33661341666812,10.1474849152565,8.52725537180901,-5.25086280584335,14.2568262417409
9.34654541666714,7.66745388507843,10.2457473742962,-4.09639673352242,13.4367278210178
9.35647741666799,4.94974698722363,11.5350736284256,-3.59116338729858,13.0558176046161
9.36640941666701,2.09139935016632,12.3230373930931,-3.66496752798557,13.0254822872182
9.37634141666786,-0.693710156679154,12.9825050854683,-4.26005386769772,13.68118163871
9.38627341666688,-3.08624696016312,13.6364226007462,-4.91477537512779,14.8199851090755
9.39620541666773,-4.64289300352335,13.9192910134792,-5.27747173011303,15.5934225115025
9.40613641666823,-5.08508722543716,13.5402943754196,-4.19635605454445,15.0601158030022
9.41606841666726,-5.08429258882999,12.5064762425423,-1.97062701120973,13.6435094441062
9.4260004166681,-5.34776695668697,10.764288983345,0.536857354268432,12.0314897065504
9.43593241666713,-5.48034672439098,9.08045693635941,2.87627227663994,10.9891692407565
9.44586441666797,-5.24670426607132,8.08225828707218,4.53341763138771,10.6490694473806
9.455796416667,-4.87644804596901,7.80856824874878,4.97180385410786,10.4629019494653
9.46572841666784,-4.6113993152976,7.94775770902634,4.28633944094181,10.1392584565878
9.47566041666687,-4.32344733327627,8.28309786558151,3.02505701780319,9.82104256458422
9.48559241666771,-3.9526537540555,8.392905651927,1.82316534876823,9.45453694638433
9.49552441666674,-3.52434023737907,8.25007805407047,0.59683297611773,8.99116074867122
9.50545641666758,-2.74723241329193,8.10432801783085,-0.903780149817467,8.60489611282112
9.51538841666661,-1.50289302840829,8.17421744763851,-2.7629052901268,8.75843387703114
9.52532041666746,0.164296545479447,8.50039326310158,-4.57835172951222,9.65634421203836
9.53525141666796,1.86016682177782,8.93263172328472,-5.67061336755753,10.7428109018542
9.54518341666699,2.85362484097481,9.26825839340687,-5.63678313195705,11.2168227433931
9.55511541666783,2.77049380660057,9.39922842264176,-5.12794322311878,11.0596985751393
9.56504741666686,2.0221990147233,9.28187363505364,-4.68246900558472,10.5909387223472
9.5749794166677,1.07872072912753,8.96786821424961,-4.31919085264206,10.0120781230045
9.58491141666673,0.21517252933234,8.58239753901959,-4.0639435172081,9.49839374032296
9.59484341666757,-0.40542053449899,8.17530327558518,-3.80696306705475,9.02734275695268
9.60477541666842,-0.635406034514308,7.67508157789707,-3.85161006689072,8.61077918445515
9.61470741666744,-0.414163108617067,6.93604497492313,-4.52036898493767,8.28939000980665
9.62463941666829,0.0687083287909627,5.73098528444767,-5.32201523423195,7.82130163837183
9.63457141666731,0.50981175262481,3.80169472575188,-4.23377940416336,5.71293959831905
9.64450341666816,0.603948306664824,1.20313654124737,-2.7400134408474,3.05286173123389
9.65443541666718,0.400773094408214,-2.17750018537045,-3.44207576036453,4.09267781172412
9.66436741666803,0.193847222216427,-6.15104633331299,-1.95792115777731,6.45804947334691
9.67429941666705,-0.246532736588269,-11.2067220640182,0.991778991222382,11.2532227996158
9.68423041666756,0.526017201170325,-21.4770663356781,1.4956110522151,21.5355038228167
9.69416241666841,0.583652255684137,-37.8161047554016,-12.0771678221226,39.7020958065287
9.70409441666743,-3.1985515075922,-42.6512890005112,-22.126584405899,48.1554661759516
9.71402641666828,-3.1537249982357,-25.9693792104721,0.978815421760082,26.1784781370437
9.7239584166673,-3.3480808916688,-13.870402443409,13.3712361681461,19.5547351366267
9.73389041666815,-1.04549553416669,-10.486636286974,14.2098929536343,17.6913441909027
9.74382241666717,1.6726220574975,-8.55968753814697,14.0985631370544,16.5781602666715
9.75375441666802,4.03317693024874,-7.03113356530666,12.7924635601044,15.1443216850564
9.76368641666704,4.35305207848549,-7.28977462470531,12.2053247559071,14.8680808739448
9.77361841666789,2.26586798608303,-9.46995985150337,10.9029673969746,14.618105054313
9.78355041666691,0.428876457363367,-11.7266237354279,7.96770606994629,14.1838633406079
9.79348241666776,-0.940391467362642,-13.0941073822975,5.1852500295639,14.1147724785106
9.80341441666678,-2.52283381819725,-14.0560725903511,0.953890495598316,14.3125041211191
9.81334641666763,-3.44595860391855,-13.9301843762398,-3.20198937803507,14.7029726053273
9.82327741666813,-3.10021420419216,-13.2676808094978,-2.35166812822223,13.8265333746347
9.83320941666716,-2.6216286662221,-12.5620645523071,1.21464210748672,12.8900643182712
9.843141416668,-2.21373552694917,-12.144877409935,2.98511234879494,12.700770371145
9.85307341666703,-1.60602636426687,-11.4271632635593,3.42437740802765,12.0368493206225
9.86300541666787,-0.401270436644554,-9.93840719461441,2.51475296616554,10.2594803966929
9.8729374166669,1.33931585490704,-7.68196725904942,-0.279449984282255,7.80285077532743
9.88286941666775,3.69689917266369,-4.65531044304371,-4.56589306712151,7.49575602019846
9.89280141666677,6.7280717933178,-0.990958042144775,-9.63791644334793,11.7956933355478
9.90273341666762,9.42982163965702,2.81739724695683,-11.955910602808,15.4855759255263
9.91266541666664,9.86114442586899,5.56609965026379,-9.57907298862934,14.8317994196929
9.92259741666749,8.11379173636437,7.42292040288448,-6.99893294870854,13.0352762176017
9.93252941666833,5.63314616382122,8.8489586520195,-5.56997869312763,11.8769132172472
9.94246141666736,3.49882181882858,10.3424041879177,-4.87666322350502,11.9577975690198
9.9523934166682,1.77648790329695,11.9741246795654,-5.06276314079762,13.1212477200972
9.96232541666723,-0.0102392785996199,13.3443342983723,-5.92799025893211,14.6017954793078
9.97225641666773,-2.11750278264284,14.0044884538651,-6.99377278089523,15.7962771753262
9.98218841666676,-3.71923319756985,13.9732596445084,-6.74768510878086,15.9566893495491
9.9921204166676,-4.38884551674128,13.3767851758003,-5.42800244987011,15.0885240234135
10.0020524166666,-4.72218738734722,12.5144436585903,-4.3046552592516,14.0513490706855
10.0119844166675,-4.89171044826508,11.1604904687405,-3.23834181010723,12.6084192622073
10.0219164166683,-4.87030086815357,8.9316412049532,-2.08825062453747,10.3853182826159
10.0318484166673,-4.75050077497959,6.57305567443371,-1.21856675863266,8.20105014358109
10.0417804166682,-4.71311046212912,5.24950508236885,-0.660648245215416,7.08570179600818
10.0517124166672,-4.66567434042692,5.01563282847405,-0.612684119939804,6.8775338277475
10.0616444166681,-4.6752228435874,5.54050170958042,-1.21360598087311,7.35035423009504
10.0715764166671,-4.98228089511395,6.25016190111637,-1.70885345220566,8.17360549752062
10.0815084166679,-5.08991059362888,7.00915446639061,-1.60679322659969,8.81006360124067
10.091440416667,-4.61800930023193,7.94356934845448,-0.795556374192238,9.22275521930686
10.1013724166678,-3.46679661870003,9.04770902037621,0.474683983325958,9.70077533998459
10.1113034166683,-1.98573460847139,10.1320248770714,1.64562867879868,10.4551022851696
10.1212354166673,-0.399180714860558,11.0040832972527,2.23975958347321,11.2368019226002
10.1311674166682,1.20111106574535,11.6846231853962,2.21288344144821,11.9528214201665
10.1410994166672,2.7431294220686,12.1891057491303,1.98040984153748,12.6499439180637
10.151031416668,3.6960443097353,12.3366953194141,1.68707491278648,12.9884955520235
10.1609634166671,3.75049825966358,12.1173721075058,1.17876366533339,12.7391690375083
10.1708954166679,3.07854939311743,11.5680121636391,0.283188840150833,11.9739954778324
10.1808274166669,2.39095366984606,10.8243094825745,-0.605159995928407,11.1017365239216
10.1907594166678,2.08121203869581,9.884964812994,-2.26129955649376,10.3516881999189
10.2006914166668,2.2298953306675,8.4620103853941,-5.34537486076355,10.2543203261032
10.210623125,2.52420557498932,6.0406362837553,-9.06021972298622,11.178035691758
10.2205551250008,1.37236183270812,2.00522016227245,-15.7310203778744,15.9175779259332
10.2304871250017,-2.63346138417721,-4.35093714058399,-24.0786095237732,24.6098600049169
10.2404191250007,-5.73499121189118,-11.7364482271671,-18.8579546034336,22.9402875530061
10.2503511250015,-4.24438917696476,-21.2194169640541,-10.2341921067238,23.9377773374482
10.2602831250006,2.79627681165934,-28.7530467939377,3.82926376283169,29.1413816574837
10.2702141250011,5.58171756327152,-33.1014737248421,-2.80294439166784,33.6855997568
10.2801461250001,2.11371729522943,-32.2769625234604,-12.5268818557262,34.6870707839728
10.2900781250009,-4.06424143284559,-19.8239064431191,3.42109478116035,20.5233821430991
10.300010125,-5.03632846355438,-11.8939102363586,12.5203329741955,17.9885642253097
10.3099421250008,-1.38145995408297,-8.84455920696259,13.2923315012455,16.025627473182
10.3198741250017,2.32437098667026,-9.21339104533196,13.3258769774437,16.3666817729142
10.3298061250007,3.61486390650272,-12.1965784907341,11.2168669831753,16.9600080442617
10.3397381250015,2.56049778074026,-15.7303339147568,7.45089289784432,17.59304859682
10.3496701250006,0.62866361014545,-17.0063717865944,4.85604389458895,17.6972614148283
10.3596021250014,-0.68301852285862,-15.4879001677036,4.84183399111033,16.2414569021622
10.3695341250004,-0.352100469321012,-12.8313147997856,4.35630108386278,13.5552194141208
10.3794661250013,0.1982330907695,-11.1144962704182,2.85905456542969,11.4780449864739
10.3893981250003,-0.456908849738538,-10.421234010458,2.0078037545085,10.6227190452499
10.3993301250011,-2.01178600072861,-9.61750147461891,3.10796234965324,10.3054862812915
10.4092611250017,-3.22692599862814,-9.24765455961228,3.89685816049576,10.5412366341697
10.4191931250007,-3.41608634859324,-8.87096406340599,3.45529426842928,10.1144801070903
10.4291251250015,-2.47121781438589,-8.13732093214989,1.03745305448771,8.56733437419182
10.4390571250005,-1.0928910908103,-6.76013090729713,-2.39090192198753,7.25328841428012
10.4489891250014,0.638552348166704,-4.58863815128803,-5.48278092026711,7.17803843709758
10.4589211250004,2.7058016744256,-1.84647995173931,-7.66314097881317,8.33394147895612
10.4688531250013,4.60466361522675,1.11942546308041,-8.45835178256035,9.69534709303012
10.4787851250003,5.90061710357666,3.88358848929405,-8.25048911333084,10.8614047142342
10.4887171250011,6.42433700680733,6.23495387792587,-7.2814382493496,11.5397616446783
10.4986491250002,6.20747488796711,8.19855122029781,-6.47813899219036,12.1538171534184
10.508581125001,5.87627456009388,9.94566241979599,-6.54633448362351,13.2778499330888
10.518513125,5.4885351651907,11.6417291808128,-6.85694910407066,14.5832653268992
10.5284451250009,4.48902089238167,13.0445954990387,-7.29277015328407,15.6043992775887
10.5383771250017,2.26685645788908,13.7094706964493,-7.7835526907444,15.9270812601389
10.5483091250007,-0.191811258271337,13.5968112230301,-7.349595733881,15.4572515165212
10.5582411250016,-1.66771697446704,13.2830332589149,-6.40848754405975,14.8421347880531
10.5681721250003,-2.63209635168314,12.6084844279289,-5.27386282861233,13.9181694165896
10.5781041250011,-3.57114602923393,11.5649786281586,-3.69911292850971,12.6564312145938
10.5880361250001,-4.61692698061466,9.89054188728333,-1.60077936530113,11.031832492601
10.597968125001,-5.72202501118183,7.65735983669758,0.260444340705872,9.56266496076618
10.607900125,-6.59975698471069,5.71814889192581,1.16978928565979,8.81035901540422
10.6178321250009,-7.05974282205105,4.68616620004177,0.897951060533524,8.52094117307639
10.6277641250017,-6.77879405021668,4.72289957821369,0.250585935115814,8.26562898465821
10.6376961250007,-5.95040672957897,5.57521078169346,-0.257865718603134,8.15823573063199
10.6476281250016,-4.61485618919134,6.83357018172741,-0.414068237543106,8.25627225694827
10.6575601250006,-2.98221885412931,8.12184744536877,-0.0729943013191223,8.65236172312465
10.6674921250014,-1.10167156219482,9.35969188928604,0.765865967273712,9.45537218586047
10.6774241250005,1.08234534502029,10.4830940437317,1.81407058954239,10.6938105593587
10.6873561250013,3.41645443081856,11.3870104336739,2.54320200920105,12.1574686491087
10.6972881250003,5.43230073809624,11.9797789371014,2.94013907432556,13.4784796051823
10.7072201250012,6.73294427812099,12.3709214115143,3.62543274879456,14.5435895788549
10.7171521250002,7.09243168115616,12.5695676994324,4.33196351051331,15.0685940670953
10.7270831250007,6.6567258220911,12.4649130642414,4.81095338344574,14.9275359261761
10.7370151250016,5.78148710131645,12.203199877739,4.94672806978226,14.3810221804678
10.7469471250006,4.93256143569946,11.7347127735615,4.42617969632149,13.4768213202916
10.7568791250014,4.46252686589956,10.6723111116886,2.795572514534,11.9007393122262
10.7668111250005,3.97259246706963,8.8515951615572,0.11946680188179,9.7029119407667
10.7767431250013,2.72578862696886,5.91061408817768,-4.6421922147274,7.99470018804664
10.7866751250003,0.814664490222931,1.18568844974041,-13.7180766284466,13.793301334902
10.7966071250012,-2.61889772415161,-7.25206768512726,-24.0412855768204,25.2474656784689
10.8065391250002,-4.43190265864134,-18.1895172822475,-18.0633799767494,26.0151109227173
10.816471125001,-3.51102905094624,-26.4799019479752,-2.23813288807869,26.8052564060795
10.8264031250001,-3.8130830553174,-33.9162481427193,1.43430211901665,34.1600455654537
10.8363351250009,-3.86113342702389,-36.4587812304497,-7.1607400238514,37.3554183197064
10.8462671249999,-3.79803816944361,-27.980012140274,-7.25763306498528,29.154406373864
10.8561991250008,-3.15480819493532,-17.2997722041607,4.71164310336113,18.2053430013316
10.8661311250016,-1.87067631483078,-14.853494811058,7.21244929075241,16.617616036865
10.8760621250003,0.3617009396106,-16.001320785284,7.15659551739693,17.53253985716
10.8859941250012,2.88340149432421,-17.3206163585186,5.33358453512192,18.3511547105283
10.8959261250002,3.83740454882383,-16.1947174429894,4.34358075857163,17.2006174463544
10.905858125001,3.75458546340466,-13.6397812414169,7.02113073348999,15.7935689789381
10.9157901250001,4.01555488407612,-11.9297747182846,10.0078463888168,16.081081903846
10.9257221250009,4.2761892592907,-12.0318530702591,10.6849516224861,16.6499091306963
10.9356541250017,4.91388659834862,-12.4029758477211,7.70340841412544,15.4052780752378
10.9455861250008,5.22471931993961,-11.8910474395752,1.63911020278931,13.0912712690275
10.9555181250016,3.39738198280334,-10.6739027237892,-3.75951992869377,11.8155995949523
10.9654501250006,-1.15293030112982,-10.209405759573,-5.6837608319521,11.7416502859563
10.9753821250015,-6.29108247041702,-9.98796585559845,-5.80974669456482,13.1563800962573
10.9853141250005,-9.61888901889324,-8.52538016974926,-6.07447645962238,14.2163426117636
10.9952461250014,-10.4087654078007,-5.53476383686066,-6.54733026444912,13.4849375836976
11.0051781250004,-8.45884528756142,-1.33992396533489,-7.07992916464806,11.1118340884038
11.0151101250012,-4.21512590914965,2.7101172119379,-6.88756863355637,8.51766537346803
11.0250421250003,0.6610203474015,5.25119902074337,-5.43329125642777,7.5850308458377
11.0349731250008,5.09679861366749,7.09513718783856,-3.52624467551708,9.42086669761042
11.0449051250016,8.21148233771324,9.01652114152908,-2.54813062727451,12.4586943686677
11.0548371250006,9.20533709049225,10.8507903528214,-2.42208512306213,14.434139343024
11.0647691250015,8.37548445761204,12.3759184420109,-2.79613560140133,15.2029757443873
11.0747011250005,6.54319394409657,13.4114533174038,-3.96183885276318,15.4394505786387
11.0846331250013,4.08984171241522,13.8185890960693,-5.6982806378603,15.4967936059829
11.0945651250004,0.869799567684531,13.179973744154,-6.99496385872364,14.9464972006615
11.1044971250012,-1.62999103143811,11.9493044185638,-6.98614041030407,13.9373205704167
11.1144291250002,-3.40497400760651,10.6818420732021,-6.02158196210861,12.7261560337637
11.1243611250011,-4.87761836618185,9.41471360385418,-4.64695477187634,11.576794971864
11.1342931250001,-5.99937599122524,8.17397069513798,-2.99605131983757,10.5727306179702
11.144225125001,-6.64122309923172,6.87539414584637,-1.27021930754185,9.64315021161444
11.154157125,-6.91979380846024,6.13711651146412,0.0558232947438955,9.24937087953155
11.1640891250008,-6.90199839234352,6.21601299226284,0.543456010222435,9.30439378804121
11.1740211250017,-6.60755132317543,6.62438662648201,0.333125742897391,9.36232905991303
11.1839531250007,-6.04674019217491,7.23335893392563,-0.311500473618507,9.43300487457362
11.1938841250012,-5.20392018914223,7.95314650297165,-0.848021174445748,9.54214150728235
11.203815750001,-4.20566482186317,8.65290151119232,-1.12647837460041,9.68655122758839
11.21374775,-3.05327363401651,9.29997427582741,-1.22954724490643,9.86528194440934
11.2236797500009,-1.82267272084951,9.90647438049317,-1.43209815725684,10.174049126612
11.2336117500017,-0.521697314791381,10.3778008925915,-1.63086796760559,10.5181105614219
11.2435437500008,0.767830047011375,10.7416742920876,-1.86903149306774,10.9300689979738
11.2534757500016,1.7517258220911,10.9063926959038,-2.15116432607174,11.2536861939014
11.2634077500006,2.22599626109004,10.8238767886162,-2.33645264983177,11.2947057984897
11.2733397500015,2.04013388693333,10.3859320306778,-2.4100088685751,10.8553154338823
11.2832717500005,1.36842154026032,9.62036953389645,-2.63634756982327,10.0684862809404
11.2932037500013,0.806734350174665,8.81232643067837,-3.15511546611786,9.39482150107816
11.3031357500004,0.72358343526721,7.96360892593861,-4.2337753111124,9.04806573241304
11.3130677500012,1.34385154008865,6.93551404774189,-5.789772605896,9.133934469669
11.3229997500002,2.78752791523933,5.6737550765276,-7.13745056390762,9.53441183812019
11.3329317500011,3.92731630682945,3.8377533352375,-7.68825009226799,9.44782268659155
11.3428637500001,3.99656751304865,1.01183201730251,-6.90395837903023,8.04120620410744
11.352795750001,2.99352444559336,-2.49809190988541,-3.37945208072662,5.15968488984816
11.3627267500015,0.769295286163688,-6.18633661866188,0.35221054315567,6.24392731086939
11.3726587500005,-0.325802141837776,-11.0326223874092,0.880873682498932,11.0725264607184
11.3825907500013,2.17312968403101,-17.9703425896168,3.30631393790245,18.4007450193675
11.3925227500004,3.92186202406883,-23.359591448307,2.47179464221001,23.8151481859952
11.4024547500012,0.837152004539967,-26.1170284223556,-2.14541622072458,26.2183677572229
11.4123867500002,-7.47513136088848,-26.5721873831749,-2.39509817630053,27.7073135915992
11.4223187500011,-13.0455193591118,-23.0060477399826,3.44467426300049,26.6707628076419
11.4322507500001,-12.2331037080288,-19.5898225200176,4.36843025565147,23.505172953962
11.4421827500009,-6.30815224707127,-17.033325111866,0.771401233971119,18.1802642720761
11.45211475,-0.148642032556236,-16.7108581852913,0.161140054017305,16.712296127695
11.4620467500008,2.97676983386278,-15.830966835022,4.69157282799482,16.7777091754429
11.4719787500017,5.29333054840565,-14.2705016827583,9.20157733082771,17.785825590832
11.4819107500007,7.31756994903088,-12.6169617211819,12.2852737355232,19.0699371731913
11.4918427500015,8.387784075737,-11.4276298713684,13.1999712216854,19.3696898899157
11.5017747500006,8.50953129172325,-10.7758617925644,11.2794158184528,17.7695397065549
11.5117067500014,7.44755706131458,-10.3348764824867,7.25198699355125,14.6583455220714
11.5216377500001,4.46118990004063,-10.367337884903,2.75040745139122,11.6167401319233
11.5315697500009,-0.262523044142872,-11.1662359428406,-0.766272933483124,11.1955758087059
11.54150175,-4.56880965828896,-11.3683005130291,-3.36333832383156,12.7052872037104
11.5514337500008,-7.28008754253388,-10.6498051786423,-5.1585153901577,13.8934627073486
11.5613657500016,-8.22828372716904,-8.75757719635964,-5.99985604763031,13.431235387606
11.5712977500007,-7.22290528178215,-5.78200633406639,-6.56026079714298,11.3419125231731
11.5812297500015,-4.24740604788065,-2.18517348647118,-6.91293794810772,8.40262770661282
11.5911617500005,0.0152334585785866,0.979992758631706,-7.68893772482872,7.75115354005616
11.6010937500014,4.24786330014467,3.56832708656788,-7.72490570247173,9.51059771652288
11.6110257500004,7.25919544100761,5.86473215639591,-6.60463414728642,11.432943362779
11.6209577500013,8.5913969886303,8.10923207759857,-5.68496009588242,13.1107024371837
11.6308897500003,8.61849766373634,10.3690569663048,-5.78867508351803,14.6732615179054
11.6408217500011,7.79889987766743,12.4947899973392,-5.9019034910202,15.8674220085308
11.6507537500002,4.96283773362637,13.5615408182144,-6.37528354525566,15.7857336863641
11.660685750001,0.390787365697324,13.0961164855957,-6.59521545231342,14.6682599047029
11.67061775,-2.76565932869911,12.1558292448521,-5.30539335429669,13.5484410467122
11.6805497500009,-4.64733191728592,11.3004388976097,-3.57041220366955,12.7297076373398
11.6904807500014,-6.1590833312273,10.5744041633606,-2.56525770664215,12.5033146802193
11.7004127500004,-6.47661111474037,9.14091012954712,-1.91598171114922,11.3654615148481
11.7103447500012,-6.3008210080862,7.16049444079399,-1.63183158874512,9.67656449090319
11.7202767500003,-6.6002481508255,6.23596427679062,-1.78831185042858,9.2546520943938
11.7302087500011,-7.1540250813961,6.12623718202114,-1.85068994700909,9.59874523860194
11.7401407500001,-7.69408912181854,6.41973115503788,-2.05175815165043,10.2284733479789
11.750072750001,-7.59155351758003,7.08306911945343,-2.31004311561584,10.6366278564797
11.76000475,-6.55568710505962,8.31684097766876,-2.15519539654255,10.8070229232918
11.7699367500009,-4.70325293362141,9.70600317656994,-1.13537367068231,10.8450983948179
11.7798687500017,-2.54875481754541,10.8387942051888,0.306792953386903,11.1386593833658
11.7898007500007,-0.674713283926249,11.5558616495132,1.27273361027241,11.6453006539511
11.7997327500016,0.662412203997374,11.9583009445667,1.54876955151558,12.0763586619698
11.8096647500006,1.25706073343754,12.1675154900551,1.36943252384663,12.3086953137061
11.8195967500014,1.02603154197335,12.0168304038048,0.877499912157655,12.092433988853
11.8295287500005,0.374834224507213,11.499068813324,0.0635604401305318,11.5053519806641
11.8394607500013,-0.288516859598458,10.7183497488499,-0.971860451102257,10.7661866997261
11.8493927500003,-0.823217066377401,9.85558723211289,-2.01770396769047,10.0936324150127
11.8593237500008,-0.964609976783395,8.90139063477516,-2.79573799073696,9.37983894067606
11.8692557500017,-0.322959481403232,8.00343431174755,-3.29473235785961,8.66109259383673
11.8791877500007,1.2432499024272,7.28674576699734,-3.96460867881775,8.38811398163472
11.8891197500016,3.34318735688925,6.655613681674,-5.75867243528366,9.41469082869141
11.8990517500006,5.31999911427498,5.55446135222912,-7.50945393204689,10.7492478735411
11.9089837500014,6.51577927350998,3.66817180216312,-7.02168271064758,10.2574310624198
11.9189157500005,5.84378041327,1.23579967260361,-3.57888423442841,6.96314459944395
11.9288477500013,3.33758923262358,-1.45254660129547,2.02606490135193,4.16585315381496
11.9387797500003,0.955060523450375,-3.81759564399719,5.34536784410477,6.63770551420511
11.9487117500012,-0.804584913700819,-6.30519706428051,3.78718778371811,7.39903089680738
11.9586437500002,-0.920331132262945,-10.3112677645683,1.08323631450534,10.4087777005132
11.968575750001,1.25657497599721,-19.0768965768814,-4.5591009414196,19.6543217911325
11.9785077500001,-0.356205543614924,-29.7409408950806,-16.5555877125263,34.0402398966448
11.9884397500009,-6.18266456723213,-32.6641300606728,-15.7792879736424,36.7988676826691
11.9983717500018,-10.0490610730648,-26.1022513389587,1.33118793278933,28.0014859377991
12.0083037500008,-8.16760073840618,-19.1113717603684,7.8949585211277,22.2325122834858
12.0182357500016,-1.76241994097829,-17.5532875943184,5.57238482236862,18.5006892311009
12.0281677500007,3.85863871246576,-17.6297528028488,5.96492127299309,19.007302870105
12.0380987500012,6.9231711602211,-16.632708978653,8.75107626199722,20.0289451201398
12.0480307500002,8.15250439703465,-14.7037382626534,11.5146691846848,20.3777048087613
12.057962750001,8.97976320505142,-13.1985503482819,11.374877461195,19.6016763510708
12.0678947500001,9.54594324946404,-11.7117694687843,9.15363367080689,17.6657744237626
12.0778267500009,8.60942570865154,-10.9212072014809,4.57199756026268,14.638925488625
12.0877587500017,5.10309606492519,-11.399781922102,0.182961716651917,12.4912005951829
12.0976907500008,-0.737712062448263,-12.8000883293152,-0.841029658690095,12.8488836562617
12.1076227500016,-6.77805145382881,-13.6828413069248,-0.604399857893586,15.281604200131
12.1175547500006,-10.6177133202553,-13.1317529261112,-0.813727766275406,16.9068306888419
12.1274867500015,-12.226285854578,-10.6991556787491,-2.4857004904747,16.4357143125667
12.1374187500005,-11.6924865210056,-6.94879190504551,-5.3647344070673,14.6212285818223
12.1473507500014,-8.27357041239739,-2.73863057434559,-7.01487538218498,11.1875172142537
12.1572827500004,-3.02834695369005,0.336350555419922,-7.04339342236519,7.67420405451095
12.1672147500012,1.42237686887383,1.97540520966053,-5.71035279929638,6.20753661220724
12.1771467500002,4.66342170059681,3.44909008026123,-4.16132129251957,7.13864967896103
12.1870787500011,6.4050376868248,5.21402710139752,-3.43721087694168,8.94566962257829
12.1970107500001,6.51525010049343,7.23161938726902,-3.99372196555138,10.5211509813533
12.2069418750016,6.0074761390686,9.45814438283444,-5.80501278877258,12.6192090958916
12.2168738750006,5.41638871014118,11.480016245842,-8.36745155274868,15.2033642708361
12.2268058750014,4.81816270798445,12.7211941874027,-10.2639053177834,17.0408692796654
12.2367378750005,3.54397869586945,12.7754727208614,-9.79046094417572,16.4810683433351
12.2466698750013,1.53543936163187,11.7720449066162,-7.24667889118195,13.9087371917273
12.2566018750003,-0.248262690156698,10.6997848391533,-4.1808392983675,11.4902762023492
12.2665338750012,-1.95105798840523,9.52694155275822,-1.72875678956509,9.87713737179242
12.2764658750002,-3.32784163177013,8.54284638762474,0.120219850167632,9.16892617164463
12.2863978750011,-4.34950398802757,7.97850295364857,1.23177912712097,9.17016761794775
12.2963298750001,-5.18859346747398,7.44464456319809,1.74179374158382,9.2400259892107
12.3062618750009,-6.14739708602428,6.8999074280262,1.78975201964378,9.41288615358807
12.316193875,-7.18306586265564,6.53813610255718,1.3226547986269,9.80270751369953
12.3261258750008,-7.96372119247913,6.54410260140896,0.473475363850594,10.3184452806361
12.3360578750016,-8.09899828076363,7.01682016611099,-0.222660802602768,10.7181675779197
12.3459898750007,-7.40902975738049,7.88868270456791,-0.32051519908011,10.8271772291738
12.3559218750015,-6.05088294446468,8.96428562521935,0.0608163052797318,10.8155119990279
12.3658538750005,-4.41080736637116,9.91940140485764,0.514150861725211,10.868030960691
12.3757858750014,-2.71535514771938,10.6613124990463,0.704613971337676,11.0242105671641
12.3857178750004,-1.15748308941722,11.1798447525501,0.290684897527099,11.2433621974505
12.3956488750009,0.148266970217228,11.4861254167557,-0.672655502557755,11.5067599961509
12.4055808749999,1.2171881313622,11.6366116976738,-1.89382894992828,11.8523781091034
12.4155128750008,1.71994942098856,11.4832766532898,-3.10538489699364,12.0194543996483
12.4254448750016,1.57330914616585,10.8055235481262,-4.28393448114395,11.7297372288237
12.4353768750007,1.33185568481684,9.85291154623032,-5.1538077968359,11.1989035315849
12.4453088750015,1.51971371367574,8.93295273542404,-5.52432889580727,10.6125107346897
12.4552408750005,2.09351253390312,8.20387511014939,-5.70791275620461,10.2111032501381
12.4651728750014,2.75171722769737,7.50627187728882,-7.04179947137833,10.6537789066644
12.4751048750004,3.45690108329058,6.60544340193272,-10.0857114207745,12.5420740907927
12.4850368750012,3.96345093011856,5.17636167705059,-12.8843841290474,14.439910590857
12.4949688750003,3.17196451038122,2.79891068994999,-8.85330664157867,9.81204863396301
12.5049008750011,1.21866981580853,0.466584420204163,-0.290832539722323,1.33695202131617
12.5148328750001,-0.663034347742796,-1.4540721398592,5.85836980104446,6.07243254882186
12.524764875001,-1.71311183318496,-3.28169891417027,8.70053292989731,9.45534627501775
12.534696875,-1.38686833620071,-5.22127004742622,10.1066538083553,11.459909069973
12.5446288750009,1.31987897917628,-11.0709286665916,12.2866396450996,16.5912343069757
12.5545608750017,3.77801262527704,-19.7609038639069,6.92670989513397,21.2778290924302
12.5644928750007,-0.229638595674187,-29.041258392334,-7.04026399254799,29.8833187577903
12.5744248750016,-11.6039234232903,-35.8360363912582,-26.235783033371,45.9041267689876
12.5843558750003,-16.0834390819073,-29.9661241865158,-14.5241562366486,36.9810319738334
12.5942878750011,-9.73394117295742,-19.485825111866,7.07892578244209,22.903235170651
12.6042198750001,-2.36466502681375,-15.0738389468193,7.22427703857422,16.8820152829499
12.614151875001,2.53779187291861,-15.866984513998,7.62526505470276,17.7861252753987
12.624083875,6.94781834363937,-17.0057040345669,10.2569494700432,21.0397519443199
12.6340158750008,10.680666782856,-15.5684981882572,11.8725854408741,22.3027591076761
12.6439478750017,12.6467462682724,-13.5175299954414,11.9096801769733,22.0114581586389
12.6538798750007,14.0953880989552,-12.1794730460644,9.45816484808922,20.8920178928127
12.6638118750016,14.5542062473297,-11.4017664670944,3.16475869417191,18.757422414935
12.6737438750006,10.7594860804081,-11.6401235353947,-3.05904922127724,16.1436302847885
12.6836758750014,3.10059836626053,-13.5572559785843,-4.10399928331375,14.5001968957375
12.6936078750005,-4.33900326579809,-15.1885426068306,-2.22782775521278,15.9524917291002
12.7035398750013,-9.6621397036314,-15.1244278872013,-2.60774825334549,18.1357551130486
12.7134718750003,-12.4671689200401,-12.8104262065887,-5.10883510708809,18.5913290710128
12.7234038750012,-13.3608608686924,-8.5113357424736,-8.19965458989143,17.837874723946
12.7333358750002,-11.0018473219872,-2.71341094851494,-10.0152548110485,15.1231138460989
12.743267875001,-4.52471492797136,1.64115731298924,-8.65870604217053,9.90654494917907
12.7531998750001,1.80400826230645,3.2134700936079,-5.25018160521984,6.41445576341213
12.7631308750006,5.24862683057785,4.75992122411728,-3.27283570468426,7.80489508041716
12.7730628750014,6.63285047113896,7.15107691526413,-2.74984845757484,10.1338182813853
12.7829948750004,6.27081660568714,9.54651159882546,-3.24390660524368,11.8735822173519
12.7929268750013,4.73988486260176,11.2476654374599,-4.01241609871388,12.8481893375281
12.8028588750003,2.7580059081316,12.3934858167172,-4.7028424590826,13.5396386389522
12.8127908750012,0.837668752223253,13.2729164063931,-5.1067874121666,14.2460968880115
12.8227228750002,-0.906332459449768,13.7877169668674,-5.39688239872456,14.8340458847598
12.832654875001,-2.56893794417381,13.4613569641113,-5.23841466844082,14.6713517344102
12.8425868750001,-3.80214379191399,12.1739240384102,-4.8972050768137,13.661747379883
12.8525188750009,-4.72557409465313,10.7030662965775,-3.47686493933201,12.205542531135
12.8624508750017,-5.27498490929604,9.52439216673374,-0.467622337527573,10.8976227953437
12.8723828750008,-5.44210885763168,8.56094819784165,2.43821349799633,10.4331811029164
12.8823148750016,-5.66877734184265,7.71480989992619,4.13240271806717,10.4273716998905
12.8922468750006,-5.82866594552994,7.34732116699219,4.65689737737179,10.4710633757458
12.9021788750015,-5.85269624769688,7.44303307056427,4.40774225592613,10.4441843363661
12.9121108750005,-5.63084469974041,7.85028403937817,3.8076401746273,10.3841944911941
12.9220428750014,-4.9176960593462,8.13967736005783,2.99305520653725,9.96977740610726
12.9319748750004,-3.97140869826078,8.62239717185497,1.95763552129269,9.69278891094101
12.9419068750012,-2.48434656769037,9.21013999342918,0.755067402496934,9.56915792268432
12.9518378750017,-0.582782299630344,9.79618536829948,-0.570968840941787,9.83010113865436
12.9617698750008,1.43566159665585,10.3083172595501,-1.92417073667049,10.5841845206662
12.9717018750016,3.16345768868923,10.817449529171,-2.80336685299873,11.6139375139003
12.9816338750006,4.07871826171875,11.2650679206848,-3.23780971348286,12.4105241491584
12.9915658750015,3.80857514441013,11.4495779800415,-3.5481840133667,12.5772687951073
13.0014978750005,2.53391663074493,11.1467600369453,-3.91340344190598,12.0824550200665
13.0114298750013,1.1906687425822,10.3622578239441,-4.26649925351143,11.2692987867332
13.0213618750004,0.350733755752444,9.26902496337891,-4.52205005943775,10.3192429314958
13.0312938750012,-0.0388887806329876,8.13139945685863,-4.8461483591795,9.46606166171751
13.0412258750002,0.0832657396048307,7.1151715028286,-5.39630761742592,8.93043865663636
13.0511578750011,0.962729000598192,6.25589100301266,-6.39853675246239,9.00023843810704
13.0610898750001,2.32011509075761,5.45959144771099,-8.56051550388336,10.4150131302129
13.071021875001,3.4458349353075,4.45490823626518,-12.0159568297863,13.2703882509223
13.080953875,4.06705920606852,2.99447198688984,-12.8787029743195,13.8336120867501
13.0908858750008,2.71766859859228,0.0988196986913681,-8.2988058257103,8.73302158920194
13.1008178750017,0.395637521445751,-4.13734127640724,-5.53637182116509,6.92282708349917
13.1107498750007,-1.47450684294105,-8.77576086759567,-0.179448563307524,8.90058149909188
13.1206818750015,-2.89560726463795,-12.9506424379349,5.14030365228653,14.2311771341648
13.1306138750006,-1.36062573999167,-18.011478921175,8.96044517397881,20.163190547335
13.1405458750014,2.46630089074373,-22.1435132646561,4.56667279332876,22.7436215275187
13.1504768750001,2.16123498558998,-19.4560066509247,-4.75491483807564,20.1448838810532
13.1604088750009,-3.25008038789034,-16.5252102577686,0.494739933013916,16.8490463882242
13.170340875,-6.96010334372521,-16.048010802269,10.0056022274494,20.151768289632
13.1802728750008,-5.79165657877922,-16.9976383852959,12.0038834989071,21.5999123993394
13.1902048750017,-1.54230326190591,-18.4492810070515,10.8546179401875,21.4610670670467
13.2001368750007,2.5752003121376,-20.5391518950462,8.02890887618065,22.2025177616735
13.2100690000007,6.27664861857891,-21.0606790924072,1.7687105217576,22.0471508051322
13.2200010000015,8.44127557396889,-18.7428872466087,-4.94934879183769,21.1434862101319
13.2299330000005,8.66270378351212,-14.5480479598045,-6.55079941749573,18.1549196993518
13.2398650000014,7.4489785194397,-10.6082805919647,-1.06398391842842,13.0059586297821
13.2497970000004,5.97562226235867,-8.9711140036583,5.29508412837982,12.0094489388835
13.2597290000012,4.05815389662981,-9.96735091209412,8.19943005681038,13.529499270486
13.2696610000003,1.39718954890966,-12.1444178187847,6.92318987131119,14.0488284489143
13.2795930000011,-1.43197141885757,-13.6508535289764,2.99088822841644,14.0478381471625
13.2895250000001,-4.07635130882263,-14.3120192527771,-1.02855088792741,14.9167171996341
13.299457000001,-6.39472319841385,-13.934299646616,-4.50664673924446,15.980208267052
13.309389,-7.15575293362141,-11.8102833580971,-7.27559337258339,15.6083904349153
13.3193210000009,-5.9896754604578,-7.8914607167244,-8.54751012682915,13.0847733543024
13.3292530000017,-3.70535892426968,-3.332191375494,-9.23547013163567,10.4941456380649
13.3391850000007,-1.25588675871491,0.495597719550133,-9.30318439722061,9.4006440512886
13.3491170000016,0.527178019657731,3.62330787062645,-7.73338650405407,8.55637443143061
13.3590480000003,1.12592734761536,6.08109960079193,-5.04604770541191,7.98185956980908
13.3689800000011,0.987605833411217,8.04588568210602,-2.79840315163136,8.57570416296917
13.3789120000001,1.10201793663204,9.62556536972523,-1.75491723239422,9.84610007627723
13.388844000001,1.13175672926009,11.0454429924488,-0.980197995901108,11.1464555938123
13.398776,1.14111190885305,12.5107505571842,-0.265370035171509,12.5654859495436
13.4087080000008,1.06515818551183,14.0246262645721,-0.473626879826188,14.0729892433123
13.4186400000017,1.18056599646807,15.493880699873,-1.64901421666145,15.6260463041892
13.4285720000007,1.44344160944223,16.4127086591721,-2.98440015792847,16.7441683434375
13.4385040000016,1.49318708896637,15.5048910069466,-3.15783266723156,15.8934942657108
13.4484360000006,0.549595732837915,12.3748963487148,-1.7014380133152,12.5033997946216
13.4583680000014,-1.27251740947366,9.4511575448513,-0.0737684726715088,9.5367248719135
13.4683000000005,-3.39981851756573,7.73523422420025,0.186609246321023,8.45147546091416
13.4782320000013,-5.28361130654812,6.69598227381706,-0.194374348707497,8.53173537080182
13.4881640000003,-6.73289340734482,6.08632233381271,-0.497821379117668,9.08971942973167
13.4980960000012,-7.33485314905643,5.98218985497952,-0.747437297701836,9.4944893855983
13.5080280000002,-7.23059729397297,6.38355443179607,-1.15582204163075,9.71427964407202
13.517960000001,-6.48809738516808,6.94597471654415,-1.61448816239834,9.64098254685796
13.5278920000001,-5.13583871841431,7.65020342946053,-1.96306173741817,9.42104363850462
13.5378240000009,-3.56877586036921,8.39623154819012,-2.15613387465477,9.37452818214393
13.5477560000018,-2.50752931594849,9.06037876725197,-2.36939878642559,9.69495834367154
13.5576880000008,-1.99635987639427,9.58010853052139,-2.41396801829338,10.0792447041427
13.5676200000016,-2.04303264409304,9.93135077476502,-2.13834898352623,10.3623475608379
13.5775520000007,-2.3202346663177,10.0526126718521,-1.74280589461327,10.4630723414952
13.5874830000012,-2.50470949620008,10.0430232381821,-1.35288197994232,10.4386864630888
13.5974150000002,-2.57117742776871,9.95092023611069,-1.0709111148119,10.333373966248
13.607347000001,-2.45979410916567,9.80150984287262,-0.882330223917961,10.1438990966716
13.6172790000001,-2.29907607793808,9.49165828406811,-1.00115558624268,9.81731329343883
13.6272110000009,-2.13285581678152,9.07578676521778,-1.56519087195396,9.45350738131245
13.6371430000017,-1.6830586065352,8.44978502690792,-2.91432595610619,9.09532017316728
13.6470750000008,-0.247919367235154,7.32271783769131,-6.10459254384041,9.536755772767
13.6570070000016,2.40268347680569,5.78845698237419,-11.3847428834438,12.9958259702351
13.6669390000006,3.95741835772991,4.02733702361584,-8.27531054377556,10.0180521138497
13.6768710000015,3.4474972987175,1.90863702356815,-2.2520014603436,4.53868301270195
13.6868030000005,3.09891173690557,-1.52626069486141,2.79985618472099,4.44656275306336
13.6967350000014,3.00644123733044,-5.87359244227409,5.9195258295536,8.86445503898647
13.7066670000004,3.94949976593256,-11.3889400148392,6.61984860241413,13.7524142819212
13.7165990000012,6.74077136099339,-16.8952396059036,6.37074376702309,19.2736477094282
13.7265310000003,7.85572487354279,-20.5981128787994,4.24564428180456,22.4503933779384
13.7364630000011,6.46239185571671,-24.3344181919098,1.5535592982173,25.2257797447108
