Time (s),Linear Acceleration x (m/s^2),Linear Acceleration y (m/s^2),Linear Acceleration z (m/s^2),Absolute acceleration (m/s^2)
0.00245312502374873,0.969233589470387,-0.204636760354042,-2.78085214912891,2.95202110933522
0.0123851250391454,1.10836706265807,-0.606388715207577,-3.79567150890827,4.00041335652385
0.0223171249963343,0.256741737574339,-0.63631622672081,-3.87697762727737,3.93722874400386
0.0322481250041164,-0.683966795057058,-0.471887406259775,-2.61074378192425,2.73979404258483
0.0421801250195131,-1.18726763650775,-0.35123873591423,-1.21398488044739,1.73399318921966
0.0521111250272952,-1.29892299681902,-0.536923062354326,-0.645698668956757,1.54674306128904
0.0620431249844842,-1.12511261120439,-0.185516218990088,0.0399867689609528,1.14100552018448
0.0719741249922663,-1.04771257907152,0.569100874811411,0.36295304775238,1.24631952922537
0.0819061250076629,-0.919905308783054,1.03987731009722,0.485379125475883,1.470769693946
0.0918381250230596,-0.554781482219696,1.34666083484888,0.774984115362167,1.64981158808921
0.101769125030842,-0.1582445859164,1.04144144028425,0.493122593164444,1.16310425775268
0.111701124988031,0.0483066990226507,0.794932183921337,-0.337644544243813,0.865017082179319
0.121632124995813,0.414648135155439,0.977840837091208,-1.18318934977055,1.58998201753402
0.131564125011209,0.945268045216799,1.13349006325006,-2.26346068739891,2.70214464531323
0.141495125018992,1.2175701007247,1.12636742368341,-3.37945617377758,3.76455901186279
0.151427125034388,1.59399995729327,1.22109918773174,-4.05637254238129,4.52615480211569
0.161359124991577,1.31156423851848,1.4214839990437,-4.50773490607739,4.90514948750457
0.171290124999359,0.25788026355207,0.688384512662888,-4.40091563165188,4.46188680543575
0.181222125014756,-0.0682482625544071,-0.0556102368235588,-3.32326793968678,3.32443380483523
0.191153125022538,0.983198494613171,0.181235326230526,-3.01101025164127,3.1726500372358
0.201085125037935,1.53623736038804,0.599100160896778,-1.64236183941364,2.32729427486099
0.211016124987509,1.20886081919074,0.430448481291533,0.249097234010696,1.30716479726639
0.220948125002906,0.0187170834839344,-0.377816012129188,3.36609587073326,3.38728455834506
0.230880125018302,-3.64690840244293,-1.0665298692137,7.22010972797871,8.15888542276374
0.240811125026084,-4.21692275851965,-0.181802652329206,9.09125206589699,10.0232905715334
0.250743125041481,-0.919785148501396,0.977143629714847,5.56551434397698,5.72501216640712
0.260674124991056,-0.33777464479208,1.10119479484856,2.72779159069061,2.96100804610666
0.270606125006452,0.063513041138649,0.272205064818263,-0.0975286334753037,0.296042797674516
0.280538125021849,1.21443833202124,-1.03301604107022,-0.94773893237114,1.85477537381833
0.290469125029631,2.73611802577972,-1.84620542496443,-0.952771046161652,3.43548962865103
0.30040112498682,3.91983596384525,-1.56344869405031,-1.60020633816719,4.51332982697838
0.310332124994602,4.46242337018251,-1.1762684391439,-2.67840659201145,5.33579344126134
0.320264125009999,4.61482636839151,-1.38236729577184,-2.79129819989204,5.56766624282937
0.330195125017781,3.66246608912945,-1.55151467308402,-2.99641560137272,4.97989579117555
0.340127125033177,2.26128493845463,-0.220384043008089,-2.59720923185349,3.45072086574955
0.350059124990366,1.35145175099373,1.80750782087445,-0.698743439912796,2.36257248621233
0.359990124998149,0.514436717480421,3.16704495549202,1.05813728749752,3.37853124975811
0.369922125013545,0.364297907352448,3.39834969699383,1.33006965279579,3.66750308924856
0.379853125021327,0.786566572487354,2.96611357569695,0.170023582577705,3.07334097286988
0.389785125036724,2.42757434293628,1.57757951393724,-0.828953331112862,3.01148434139048
0.399716124986298,4.14739848732948,-0.850720760822296,-0.358633709549904,4.24891258597097
0.409648125001695,4.13795084863901,-1.98444266617298,-0.00450177133083344,4.58919058081326
0.419580125017092,2.93597351789474,-1.57296489134431,0.0537633937597275,3.33122343136716
0.429511125024874,2.15949850872159,-0.11789653211832,0.253672680258751,2.17754063800563
0.43944312504027,3.13599448621273,1.17178610980511,0.0849886947870255,3.34884564931417
0.449374124989845,4.79457328587771,1.57075946778059,-0.312516719698906,5.05498615224274
0.459306125005242,6.13694226443768,1.33863728553057,0.470035446882248,6.29880492320407
0.469237125013024,7.10036109030247,0.78932894334197,0.0445119291543961,7.14423887515778
0.479169541678857,7.532643404603,-0.444997084736824,0.103669379353523,7.54648834932838
0.489101541694254,7.82238697350025,-2.15157655477524,1.04786256015301,8.18028334345549
0.499032541702036,6.08766894757748,-2.59911542415619,-1.19956213831902,6.72711405634498
0.508964541659225,4.17088265955448,-3.72342974424362,-0.519250876307488,5.61514137779598
0.518895541667007,2.5754695764184,-4.79892858445644,-1.03368832468987,5.54357922739182
0.528827541682404,0.901585982143879,-5.68268319010735,-1.72462222337723,6.00666857215325
0.538758541690186,-0.39507238805294,-6.15304140329361,-2.41394930720329,6.6214161597195
0.548690541705582,-1.74003519147635,-6.38897129237652,-3.44625827372074,7.46480895479423
0.558621541655157,-2.5127649128437,-6.9898212325573,-3.85626678943634,8.36913268634432
0.568553541670553,-2.36693681627512,-7.63172271966934,-3.97982664227486,8.92662319495545
0.57848554168595,-2.1837783408165,-7.97624183535576,-3.42655841946602,8.95157104981646
0.588416541693732,-1.65487371146679,-7.79407767891884,-1.70550358235836,8.14831248390499
0.598348541650921,-1.22747206807137,-7.59530392169952,0.550037051439285,7.71348624804865
0.608279541658703,-1.68082190036774,-7.31148007392883,2.49425964474678,7.90596194701357
0.6182115416741,-2.65434997737408,-6.64857655763626,4.77245590031147,8.60380609762644
0.628142541681882,-2.98042755961418,-6.27913543939591,5.65841373682022,8.9625965167144
0.638074541697279,-3.2874508202076,-5.87592489659786,5.1824942368269,8.4965918344055
0.648006541654468,-4.14468011677265,-5.24973663210869,4.70936181217432,8.18023206607491
0.65793754166225,-4.54800175666809,-4.83703021109104,4.51454808175564,8.02884335531258
0.667869541677646,-4.13032929539681,-4.31330446064472,4.49846648454666,7.47665808842563
0.677800541685429,-3.42528957366943,-3.6113462215662,4.46456783652306,6.68631409391042
0.687732541700825,-2.3081948107481,-3.09109839498997,4.30875006437302,5.7834228350613
0.697663541708607,-1.11569903254509,-2.73853994250298,4.08905380010605,5.04626062823433
0.707595541665796,-0.519290637373924,-1.81222169995308,3.86110302150249,4.29673443425362
0.717526541673578,-0.241177180409431,-0.081338278055191,3.91363294512033,3.92190070972717
0.727458541688975,-0.497389891147614,1.95313141107559,4.44956037282944,4.88474221676027
0.737390541704372,-1.06293083488941,3.41188103109598,4.66143306255341,5.87364557381336
0.747321541653946,-1.57371728181839,4.2345392498374,4.80255064219236,6.59336040364317
0.757253541669343,-1.78559406459332,4.64115638047457,4.462660767138,6.68161805508841
0.767184541677125,-1.5988281494379,4.3665135383606,3.46967724949122,5.80184041040068
0.777116541692521,-1.40137118518353,3.94839434981346,2.66048838436604,4.96304922236805
0.787047541700304,-0.320557225942612,3.98808641910553,2.39294084608555,4.6619476739044
0.796979541657493,0.747606866955757,4.18848131686449,2.45474533081055,4.9120328183328
0.806911541672889,1.11215854346752,4.03753632187843,2.03787627696991,4.65741729894715
0.816842541680671,1.55137273192406,4.13957959055901,1.25486393451691,4.59538464484546
0.826774541696068,1.47502973020077,4.40005521386862,0.291370556652546,4.64984896435923
0.83670554170385,1.28842695236206,4.68037394821644,-1.13081876277924,4.98444534336266
0.846637541661039,1.91061455190182,5.33642628192902,-2.50639466375113,6.19757272154848
0.856568541668821,2.76774093747139,5.84594095945358,-3.44244998216629,7.32706472457346
0.866500541684218,4.40783581137657,6.28957856655121,-4.41965303421021,8.8612159452119
0.876432541699614,5.4220616787672,6.57365267515183,-3.92195996493101,9.3804814539771
0.886363541707397,6.53538030982018,7.20350188136101,-4.47529864668846,10.706536934313
0.896295541664586,7.30439792633057,7.58980812370777,-5.76876122117043,12.0099135070892
0.906226541672368,7.59270600378513,8.06395007014275,-7.32511227250099,13.2790716918923
0.916158541687764,6.53311159014702,7.65133661985397,-4.57642156362534,11.0529694402747
0.926089541695546,6.82350303053856,8.05713923335076,-6.5830228382349,12.4424224298201
0.936021541652735,5.69684807002544,7.61638196468353,-7.17242393016815,11.9124731772608
0.945952541660517,3.2752593755722,5.9499418759346,-5.21232848525047,8.56139594589733
0.955884541675914,1.94758942008019,3.20742436498404,-3.08281698346138,4.8563809735048
0.965816541691311,2.93275696456432,2.04657225608826,-2.16361187875271,4.17980116446591
0.975747541699093,3.44212312281132,2.15940831542015,-1.13461375191808,4.21883920425271
0.985679541656282,2.68351647377014,2.22169110238552,0.138692446947098,3.48660402315131
0.995610541664064,1.69028386473656,1.19720395624638,0.947176430225372,2.27760840493163
1.00554254167946,0.927687660455704,-0.141138629615307,0.573970728367567,1.09998495678544
1.01547354168724,0.86087854385376,-0.678717018663883,-0.596769899278879,1.24815983406657
1.02540554170264,0.974092333316803,-0.384226387739182,-2.25885542035103,2.48976175585354
1.03533654165221,1.69358286380768,0.457065445482731,-3.29690810680389,3.73453274222447
1.04526854166761,3.15790400326252,1.0398793566227,-3.91430859088898,5.13571012761222
1.05520054168301,3.66431965649128,1.51745157212019,-2.18424202501774,4.52778213284738
1.06513154169079,2.21243379056454,2.65781035959721,-0.759222360849381,3.54051377322949
1.07506354170619,0.484333058595657,2.95730006754398,-1.50739465355873,3.35446580586563
1.08499454165576,0.0933578145503998,1.95191635966301,-1.84454335391521,2.68719804650318
1.09492654167116,0.143154457211494,0.22179512232542,-1.65841712415218,1.67929557630218
1.10485754167894,0.286678458452225,-2.3874719452858,-1.42556520938873,2.79543252365119
1.11478954169434,0.0477612268924713,-2.98406072705984,5.20428213179112,5.99928762978201
1.12472054170212,-4.81192051291466,-2.96455353856087,7.36154627323151,9.28092238080522
1.13465254165931,-4.87483889222145,-4.73895340114832,5.05478110671043,8.47186789321734
1.1445845416747,-3.36670281171799,-5.39638246178627,3.90623767912388,7.46420285778136
1.15451554168249,-3.24031466066837,-5.22739675998688,3.56869604587555,7.11061934393281
1.16444754169788,-1.96707117319107,-5.57069497704506,6.4541578066349,8.74975225481388
1.17437854170566,-0.362768275737762,-5.72132802307606,5.46247821807861,7.91857711034631
1.18431054166285,-0.337246933579445,-5.58117728054524,1.82030606031418,5.88020318392992
1.19424154167064,-0.653746776580811,-4.56440728962421,-0.0433465790748596,4.61119048396203
1.20417354168603,-1.72776685595512,-3.94632151186466,-1.21238274335861,4.47532163089276
1.21410454169381,-2.44442031741142,-3.14143765926361,-0.724544863700867,4.04583570041206
1.224036541651,-2.88784567058086,-2.48131741762161,0.522603085041046,3.84313709468963
1.2339685416664,-3.00232596695423,-2.03732371509075,0.367899792194366,3.64691642199482
1.24389954167418,-3.93870200514793,-1.24711578905582,-0.128430601749569,4.13342058060082
1.25383154168958,-5.10195410370827,0.169044173955917,-0.380894644260406,5.11894445556116
1.26376254169736,-4.14797443807125,2.11051389813423,-0.577156437635422,4.68967700450834
1.27369454165455,-2.80396736204624,3.940790630579,-0.447909582853317,4.85723035853681
1.28362554166233,-1.54857308506966,5.13384598731995,-0.0246413179300725,5.36237451283222
1.29355754167773,-0.447436543107033,5.27938727796078,0.269329769611359,5.30515485312169
1.30348854168551,-1.5670023393631,4.57811842560768,-0.399595209360123,4.85534148972053
1.31342054170091,-3.01312168121338,3.64208415716887,-2.09667587757111,5.17104718691361
1.3233525416581,-4.76538369297981,3.00345360249281,-0.977652118206024,5.71711631400636
1.33328354166588,-4.60522787153721,0.691747831106186,0.601093769073486,4.69552473423815
1.34321554168127,-4.58921117842198,-1.37469677209854,0.700660157203674,4.84165004014789
1.35314654168906,-2.97945399820805,-2.8599410033226,-0.231039862632751,4.13639796055084
1.36307854170445,-2.79522051215172,-2.7308774587512,0.78551962852478,3.98597422132493
1.37300954165403,-2.9895749437809,-1.11306310772896,0.662895257100463,3.25820471243845
1.38294154166942,1.52765759468079,-1.12797657743096,-1.14470955446363,2.21730215575123
1.39287254167721,7.66231067419052,-2.75080798566341,-0.122373014241457,8.14204670807151
1.4028045416926,8.7190253341198,-3.65735036015511,2.92495151638985,9.89711856083278
1.412736541708,3.99315186202526,-3.92725023329258,6.43631093502045,8.5319783544238
1.42266754165757,-1.28242069244385,-4.67644754290581,6.03118659853935,7.73879682123511
1.43259954167297,-1.87624637246132,-5.84778867959976,1.89425711229444,6.4269077244743
1.44253054168075,-1.13545151174068,-6.86555503606796,-0.914787533283234,7.01868451491038
1.45246254169615,-1.15199503898621,-6.46332857966423,-2.92833822369576,7.1886628555602
1.46239354170393,0.453326443433762,-3.90474430024624,-4.86479454517365,6.25449909116414
1.47232554166112,2.99442462444305,0.134537488594651,-6.60471542358398,7.25306452431222
1.48225662502227,4.74670183897019,3.82666555255651,-7.43724900484085,9.61702762599816
1.49218862503767,6.59982130408287,5.57327301442623,-6.12117875576019,10.5871546082565
1.50211962498724,6.66250813364983,5.02524798989296,-3.58728434443474,9.08354231336542
1.51205162500264,4.72789894759655,3.95906639546156,-2.78123280286789,6.76479793387104
1.52198362501804,2.49739667594433,3.17689108192921,-2.7449514144659,4.88511876736252
1.53191462502582,1.24761631071568,2.41843719139695,-2.03985906779766,3.40094250524353
1.54184662504122,2.32976577401161,1.77348652750254,-0.0542428654432297,2.92848174203638
1.55177762499079,3.88695648550987,1.61899636566639,2.3364403706789,4.81544738918685
1.56170962500619,4.38320792376995,1.83069246947765,2.84118079662323,5.53500270459758
1.57164062501397,3.87691038429737,2.89304355293512,4.89047317743301,6.87872539255959
1.58157262502937,2.73977370500565,4.15287323534489,5.85448900401592,7.68295239876101
1.59150362503715,1.62135630190372,4.722160782516,5.96717420518398,7.78040916074908
1.60143562499434,-0.0816125124692917,5.79171037316322,6.48766469120979,8.69714681917974
1.61136762500973,0.0188818287849426,7.72679610729218,7.40913500726223,10.7050930011356
1.62129862501752,5.96998847007751,7.84482741773129,-0.170078546404839,9.85956420227558
1.63123062503291,11.3324559116364,7.88579359531403,-4.29252988815308,14.4580811471566
1.6411616250407,9.73422125458717,6.82312997817993,-6.41794307649136,13.5092619881871
1.65109362499788,7.91700193941593,4.69446076780558,-7.61880855917931,11.9483524165721
1.66102462500567,5.22813292443752,4.39103851497173,-6.10648528754711,9.15989932709864
1.67095662502106,1.75843842566013,3.08550290197134,-2.54421942472458,4.36869389360911
1.68088762502885,-0.338494729399681,0.689090563952923,0.0446646876633167,0.769037984422345
1.69081962498603,-1.61715683162212,-1.38300361901522,2.16635480761528,3.03660803870851
1.70075062499382,-2.00173814535141,-3.23143858730793,2.41367682695389,4.50277545199311
1.71068262500921,-0.902830561995506,-5.01825121164322,1.64588654100895,5.35788118127923
1.72061362501699,-1.44572231590748,-6.60188829481602,0.361851980499923,6.7680114455971
1.73054562503239,-2.44632241666317,-7.31634495735169,-0.586246555633843,7.73673587019918
1.74047762498958,-1.99317197442055,-6.8424556106329,-0.993158349394798,7.19571378044386
1.75040862499736,-1.88308819949627,-6.22542876362801,-0.515810959339142,6.5244191621832
1.76034062501276,-2.43970161437988,-5.80342877805233,-0.0559625315666199,6.29563828011689
1.77027162502054,-3.55929021477699,-5.21623676419258,0.443705361708999,6.3304460554633
1.78020362503594,-5.27344884574413,-5.84467913031578,0.676796719953418,7.90111325479952
1.79013462498551,-6.28859740376473,-6.473524954319,0.0548829893767834,9.02529749001938
1.80006662500091,-5.88666506230831,-6.16852658450604,-0.112848923206329,8.52738416274462
1.80999762500869,-4.60497994959354,-5.25240764021874,0.3491479177773,6.9939638706298
1.81992962502409,-2.55746336817741,-4.02398247599602,0.777341712713242,4.83087093441921
1.82986162503948,0.880293638706207,-2.24487852841616,1.72254383057356,2.96336864833546
1.83979262498906,4.20699389398098,-0.575909811258316,4.21588575482368,5.98365794747846
1.84972462500446,5.97155727803707,0.128377666175365,4.81852874368429,7.67425542992686
1.85965562501224,7.18833595812321,0.542551153600216,2.95842945724726,7.79222949191233
1.86958762502763,6.52736670076847,0.548475552499294,-1.28578196436167,6.67537090638927
1.87951862503542,3.41055166661739,0.628618952035904,-4.49627319395542,5.67833576782912
1.88945062499261,0.801127601265907,0.677174523174763,-3.68720507383347,3.83351692638109
1.89938162500039,0.247093977928162,1.08697692453861,-3.32388394385576,3.50582069430682
1.90931362501578,-1.4809465277195,1.38225634485483,-0.827507022321224,2.18828770796868
1.91924462502357,-2.70400804102421,1.28754665404558,0.0181903955340385,2.99495688829693
1.92917662503896,-2.88908118724823,1.25507706552744,0.418770276010037,3.1776370294598
1.93910862499615,-2.81776854515076,1.47354424506426,1.05281076639891,3.34956157221336
1.94903962500393,-2.24278083980083,1.30619985669851,1.3382531234622,2.92012763136704
1.95897162501933,-1.97080695927143,1.13225162297487,2.13730496317148,3.11995934493374
1.96890262502711,-2.3510981708765,0.649980000257492,2.52610942840576,3.51160439886301
1.9788346249843,-2.56137690961361,0.230950692594051,2.7228907468915,3.74541371747085
1.98876562499208,-3.42151227235794,-0.317103860378265,2.28678142994642,4.12755016886659
1.99869762500748,-4.75116735756397,-0.893597808480263,1.73855175286531,5.13757437905216
2.00862862501526,-5.48020112872124,-0.678450677990913,1.36266904950142,5.68768552859359
2.01856062503066,-4.66024081528187,0.0853339728713036,1.29059305340052,4.83639915358841
2.02849162503844,-3.61712502479553,0.902124218344688,1.89351436972618,4.18124601269593
2.03842362499563,-2.66036091506481,1.7288424512744,2.07042509526014,3.78854543259229
2.04835462500341,-1.73860116183758,2.77223247617483,1.92695488840342,3.79752051262969
2.05828662501881,-1.00164441347122,3.61842603027821,1.70079628139734,4.12177224728005
2.06821862503421,-0.761341976523399,3.88888811320066,1.11731900364161,4.11721922152667
2.07814962504199,-0.206925945281982,3.89826266169548,0.706395398676395,3.96714816784944
2.08808162499918,0.943565189838409,3.73127027571201,0.510551681220532,3.882442035251
2.09801262500696,1.46890009403229,3.2517097145319,0.558325187265873,3.61151084292497
2.10794462502236,1.46026784956455,2.50984773695469,-0.136149785220623,2.90693216625089
2.11787562503014,0.905099866390228,1.57262385249138,-1.34791272372007,2.26035843625096
2.12780762498733,0.395930174589157,0.544544177055359,-6.28811091542244,6.32405154537579
2.13773862499511,2.25523073136806,0.165270673334599,-16.2425733947754,16.3992246930102
2.14767062501051,4.77127008497715,1.10800380438566,-18.7118350231648,19.3423230401228
2.15760162501829,5.20812843024731,1.78947398453951,-11.5536572492123,12.7989770966109
2.16753362503368,4.71717924714088,1.17266903936863,-6.18503502845764,7.86648530341209
2.17746562499087,3.96968873977661,0.206732987165451,-2.73773565798998,4.82663068317034
2.18739662499866,2.26564754605293,0.338231019973755,0.131014175713062,2.29449858139985
2.19732862501405,-0.410314909815788,0.825159949958324,1.7450784149766,1.97346039804441
2.20725962502183,-2.58933654069901,1.09896722495556,2.43405057281256,3.71981113412156
2.21719162503723,-3.09413719296455,1.75335690289736,3.01080969214439,4.65971248041497
2.2271226249868,-2.97406286537647,2.39230583846569,3.31859104424715,5.05778841697888
2.2370546250022,-3.07270714759827,2.52183072835207,4.52935264706612,6.02629196428841
2.24698562500998,-3.04207709312439,2.14173393666744,5.7361197245121,6.83698228679305
2.25691762502538,-2.88095940470695,1.21660355597734,5.95021552562714,6.72198751154749
2.26684862503316,-2.50661422669888,-0.352157333493233,5.89984994888306,6.41991893160324
2.27678062499035,-1.62805662631989,-2.53285419166088,6.22561996757984,6.91550885441173
2.28671162499813,-0.140971106886864,-4.19661976397038,5.97443469285965,7.30242152957282
2.29664362501353,0.184436384439468,-5.01861432373524,4.52289498209953,6.75848248717171
2.30657562502893,-1.08810836076736,-5.36094833493233,3.20750184059143,6.34127864960869
2.31650662503671,-1.40298969447613,-4.07448838591576,3.22105685591698,5.38005975420519
2.3264386249939,-1.0058123087883,-2.81390353560448,4.36792797982693,5.29230633515789
2.33636962500168,3.08705036759377,-5.10533905684948,3.7610320186615,7.0526398392978
2.34630162501708,0.598460767865181,-6.66546390116215,-5.48638280510902,8.65372524364886
2.35623262502486,-3.33181306064129,-5.88984419345856,-6.02576272130013,9.06096348451353
2.36616462504026,-4.57017264425755,-4.67785672187805,-4.22941621184349,7.78824646513862
2.37609562498983,-5.56442149937153,-3.96515071570873,-2.10637509271502,7.14996663294059
2.38602762500523,-5.67318731188774,-3.09609601020813,-0.419189229011536,6.4766182834802
2.39595862501301,-5.25191179633141,-2.98631161272526,0.711982778683305,6.08338343702617
2.40589062502841,-4.66575941741467,-3.03736306786537,1.18277719415724,5.69155929761297
2.41582262498559,-4.32970999360085,-2.80233481943607,1.23066230893135,5.30226355319453
2.42575362499338,-4.0734966981411,-2.5928647506237,1.40722483277321,5.02957301316592
2.43568562500877,-3.58721359312534,-2.35942519068718,2.23357205986977,4.83981742835237
2.44561662501656,-2.85020597398281,-2.01507681369781,3.02003659844399,4.61571551497392
2.45554862503195,-2.0564797782898,-1.44881666243076,3.19943619132042,4.0699595504357
2.46547962503973,-1.54019051671028,-0.71831640958786,2.96038447380066,3.41350868239228
2.47541129169986,-1.14155103474855,-0.226283737421036,2.72868621468544,2.96649145506457
2.48534229170764,-0.938244808316231,0.362492287158966,2.69584357380867,2.87737320364036
2.49527429166483,-0.806867812871933,1.14035849511623,2.86769382655621,3.18984655551032
2.50520529167261,-0.265469145476818,1.66931516468525,2.62155060589314,3.11923300917181
2.51513729168801,0.8296408174932,2.16885390758514,2.20782676935196,3.20417387199341
2.52506829169579,2.24806482240558,2.56488523900509,2.1830901235342,4.04948320437018
2.53500029165298,3.41620592415333,2.45350162804127,1.64646833896637,4.51674563665479
2.54493229166837,4.3965559476614,1.7768992549181,0.43753128670156,4.7621957949971
2.55486329167616,5.35337268233299,1.0741615819931,-0.496850777864456,5.48263466552748
2.56479529169155,5.85638174772263,0.342595381736755,-0.497587453946471,5.88745887841019
2.57472629169933,5.63813968598843,-0.330502170324326,0.0922602190822363,5.64857174437325
2.58465829165652,4.95170288085938,-0.997139718532562,1.15897434867919,5.18236148676282
2.59458929166431,4.09145495921373,-1.4067488694191,2.34606664180756,4.92168413784233
2.6045212916797,3.33378561884165,-1.35133831501007,3.29866811871529,4.88072260545898
2.61445229168748,2.60813300013542,-1.16708260953426,3.94024800896645,4.86723678651828
2.62438429170288,2.29412670224905,-1.07622389495373,5.25911556601524,5.83777112730067
2.63431529165246,2.48487164765596,-1.12662397027016,7.48078678786755,7.96279094546915
2.64424729166785,2.30056492522359,-1.2851150894165,6.15405998826027,6.69451821323394
2.65417829167563,2.18446451157331,-1.44607080996037,2.26809387490153,3.46514874357632
2.66411029169103,2.81266187936068,-1.35566116154194,-0.476594707220793,3.15848484996728
2.67404129169881,3.547149348557,-1.12052532434464,-2.81688970863819,4.66612399471957
2.683973291656,3.618654948771,-1.35263932049274,-5.47033219814301,6.69692699136313
2.6939052916714,3.0761993971467,-1.68901677310467,-10.0569665086269,10.6516832353614
2.70383629167918,3.37792683452368,-1.34690846443176,-18.013360555172,18.376770951437
2.71376829169458,4.77389109939337,-0.872910944223404,-14.3057826125622,15.1065358670775
2.72369929170236,5.04529458403587,-1.21768324434757,-6.75305109858513,8.5171268079892
2.73363129165955,4.94728530943394,-2.06703341782093,-3.08693342328072,6.18687457793488
2.74356229166733,5.32115101575852,-2.83555109739304,-1.25110592901707,6.15794317967098
2.75349429168273,6.02981250286102,-3.33205455064774,0.112437863945961,6.89012834578574
2.76342529169051,6.66910086929798,-3.42038083612919,0.787472598552704,7.53631372505831
2.77335729170591,6.96491735637188,-3.36596723198891,1.13305824637413,7.81816028088385
2.78328829165548,6.87043512225151,-3.22252684593201,1.57881488442421,7.75114278549293
2.79322029167088,6.50326974034309,-2.75411867916584,1.6878350508213,7.26129975785143
2.80315129167866,5.71696833908558,-2.66886569023132,1.22671383038163,6.4273943308506
2.81308329169406,4.83448521047831,-2.61968651354313,0.497354807853699,5.52108381429484
2.82301429170184,4.73388035684824,-2.42791947484016,-1.05877580344677,5.42452047753773
2.83294629165903,4.93615104138851,-2.49480986773968,-3.14212412238121,6.36102251057344
2.84287829167442,4.9354546380043,-2.52292854309082,-4.68274265527725,7.25616701109433
2.85280929168221,5.11239723086357,-2.04033444643021,-5.77337876737118,7.97693377752151
2.8627412916976,5.3040268599987,-1.46125310540199,-8.70615561246872,10.298791536785
2.87267229170538,5.33133628070355,-1.28609157443047,-11.434312069416,12.6815090023451
2.88260429166257,4.2701911854744,-1.53623195171356,-8.53069294989109,9.66267372807809
2.89253529167036,2.81978524982929,-2.44735620439053,-5.5636917668581,6.70040351941047
2.90246729168575,1.76003442317247,-4.09596228539944,-3.20502963781357,5.49061409984621
2.91239829169353,0.779201200380921,-5.79243191957474,-0.214296927060932,5.84853359625566
2.92233029165072,-0.0304509834945202,-7.08260251164436,2.60982752323151,7.54820411100306
2.93226129165851,-0.622899790406227,-8.10863916993141,4.09168621659279,9.10384146567203
2.9421932916739,-1.89947750642896,-9.42034271836281,4.73704106926918,10.7140295790512
2.95212429168168,-3.77511649936438,-10.127468726635,5.06164573788643,11.9347134430872
2.96205629169708,-6.13530796766281,-9.54541758477688,5.14560824632645,12.4593051552042
2.97198829165427,-8.45066737174988,-8.06512886881828,4.94145622014999,12.683772004978
2.98191929166205,-10.037161989212,-6.22106264770031,4.22188032031059,12.5407541520963
2.99185129167745,-10.1758322167397,-4.176819922328,3.03432485461235,11.4105439524201
3.00178229168523,-9.03641103029251,-2.36501629829407,2.03265018180013,9.5593772370987
3.01171429170063,-7.60980794012547,-1.17104117453098,1.4523071578145,7.8351586071172
3.02164529170841,-6.44493674755096,-0.34892499268055,1.43853988856077,6.61274189284826
3.0315772916656,-5.62854615926743,0.165247576832771,2.1620338614285,6.03176831838033
3.04150829167338,-4.12546675086021,2.05183591961861,3.26619268298149,5.64778905376716
3.05144029168878,-1.79764517605305,4.9527489477396,4.17701931238175,6.72374454112681
3.06137129169656,-0.798909460008144,3.09132760584354,4.08946895241737,5.18828671188539
3.07130329165375,0.528207641243935,2.2441391479969,4.00992957025766,4.62544040997909
3.08123429166153,1.55863848209381,2.03512983977795,3.56554439663887,4.39137953575197
3.09116629167693,1.9342218080163,2.0078777217865,3.39109768778086,4.39002625007244
3.10109729168471,1.68581513017416,2.11167340099812,2.97089250504971,4.01588589008298
3.11102929170011,0.788356989920139,2.25279536604881,2.78266537070274,3.6660360432155
3.12096029170789,-0.470595025420189,2.25262287318707,3.12186352014542,3.87837611961121
3.13089229166508,-1.56283912181854,2.29634425878525,3.31907022356987,4.3280353769962
3.14082429168047,-2.42341010212898,2.21393360137939,3.98401792645454,5.16205553561067
3.15075529168826,-3.15532538115978,2.32506461262703,4.34997176527977,5.85527608850452
3.16068729170365,-4.06589297890663,2.50576404154301,4.91636114001274,6.85426480425432
3.17061829165323,-5.73570515692234,1.9522478967905,4.93125282883644,7.81196773928156
3.18055029166862,-7.12991291821003,1.65442347586155,5.01860906124115,8.87463870635373
3.19048129167641,-8.57769111514092,1.60726451218128,5.36150615930557,10.2423548256813
3.2004132916918,-9.31883154630661,1.51370146036148,5.52963115096092,10.9411486675402
3.21034429169958,-8.31405360996723,2.34655079126358,4.72097175121307,9.84466161537006
3.22027629165677,-7.0016355317831,3.5024675577879,3.10406459569931,8.42172168428513
3.23020729166456,-5.92454215586186,4.48978570818901,1.89737133935094,7.6719224097636
3.24013929167995,-5.24775267183781,4.75408277928829,0.870983701944351,7.13434115992213
3.25007029168773,-4.98556878447533,4.30696198582649,-0.517002768069506,6.60856334722463
3.26000229170313,-5.1416619604826,3.32422805249691,-2.78385586380959,6.72584814959037
3.26993329165271,-5.08707995653153,1.85928593873978,-8.72832357645035,10.2722421671882
3.2798652916681,-2.05973112255335,-0.100078019499779,-17.3119414293766,17.4343288933463
3.2897972916835,4.04079058974981,-2.48976255118847,-15.0859239721298,15.8149299158862
3.29972829169128,7.59622310400009,-5.14331613779068,-6.00119506001473,10.9622373851029
3.30966029170668,11.5456149888039,-7.35629547357559,-8.40123150229454,16.0622849968299
3.31959129165625,14.8659318387508,-8.29826378881931,-13.6280412018299,21.8078109479606
3.32952329167165,13.6279441380501,-5.97495860338211,-11.1099085450172,18.570165847956
3.33945429167943,10.2099378561974,-2.19377474069595,-10.4500479197502,14.773590632118
3.34938629169483,7.80806129515171,0.91097339451313,-9.9255632007122,12.6614572054598
3.35931729170261,6.0107587659359,2.88381810843945,-7.45375920295715,10.0002077018683
3.3692492916598,4.55047688305378,4.09666395127773,-3.79488622784615,7.20351697958724
3.37918029166758,2.36624947607517,4.2986840826273,1.53882329151034,5.14254786538288
3.38911229168298,-0.544983010590076,2.95985237717628,7.11764429032803,7.72778058825088
3.39904329169076,-2.2322540974617,1.64101639509201,9.99985324501991,10.3765581040406
3.40897529170616,-2.71307414889336,-0.403968341946602,11.886645655632,12.1990289245187
3.41890629165573,-2.03108970612288,-3.30150928080082,11.8616359448433,12.4789300908984
3.42883829167113,-0.437583984732628,-6.25044782996178,10.8182891893387,12.501798222773
3.43876929167891,0.921450727880001,-8.71751967608929,8.17032963395119,11.9832594511817
3.44870129169431,1.23716558218002,-10.5933269226551,4.93703572511673,11.752594425022
3.45863229170209,0.139173965156078,-11.2808975028992,4.1162889611721,12.0092403038394
3.46856429165928,0.84028406560421,-8.5833395254612,5.51673219323158,10.2378771633621
3.47849704168038,4.88927596002817,-3.2565804451704,6.85918040156365,9.03098507308978
3.48842804168817,6.98063350260258,-0.0171867209672928,6.56544669270516,9.58303864939447
3.49836004170356,2.36358694642782,0.228645427823067,-3.64812813162804,4.35289109096061
3.50829104165314,-4.46623663187027,-0.0956826674938202,-11.1871631276608,12.0461215197926
3.51822304166853,-7.65111793398857,0.804712529182434,-4.94952420830727,9.14794828270495
3.52815404167632,-9.97180181264877,0.36453998208046,1.48487468719482,10.0883384967968
3.53808604169171,-12.068953653574,-1.24223102509975,4.59886346966028,12.9750655267869
3.5480170416995,-13.4526282405853,-2.4536659348011,5.66268337368965,14.8006643800087
3.55794904165668,-12.8696889066696,-2.62245283126831,5.97040946960449,14.4274717342099
3.56788004166447,-10.8796931397915,-2.66217355191708,5.8329215490818,12.6284545623879
3.57781204167986,-9.09221919536591,-3.01170548558235,5.33945513963699,10.9657923113956
3.58774304168764,-7.2273310393095,-3.05317686259747,4.46393516778946,9.02678902424858
3.59767504170304,-5.11047817468643,-2.86776340842247,3.05849490523338,6.6102530379685
3.60760604165262,-2.8783761048317,-2.59756357312202,1.72654478788376,4.24421281533397
3.61753804166801,-0.884172096848488,-1.85023561835289,1.31028384447098,2.43351102182604
3.62746904167579,0.586006490886211,-0.989426071643829,1.1998534027487,1.66193133031932
3.63740104169119,1.60784250944853,0.30449960231781,1.58743484973908,2.27987432661705
3.64733304170659,2.67782917946577,1.77471122682095,2.113764950037,3.84556514923458
3.65726404165616,3.92804486989975,2.78845528364182,2.32708774924278,5.34979969358588
3.66719604167156,5.02092397391796,3.64418593883514,2.20014586687088,6.58258388052723
3.67712704167934,5.50343445539475,3.92979961931705,1.47138633012772,6.92070036812007
3.68705904169474,5.1354586493969,2.58004531502724,0.264274851679802,5.75320871900975
3.69699004170252,4.00580640614033,0.90206750035286,-0.684206092357636,4.16273332264836
3.70692204165971,2.54872002661228,0.677691709399223,-0.621248609796167,2.70946298410158
3.71685304166749,0.912539717406034,1.06067790269852,0.0493275497853756,1.40007126828753
3.72678504168289,-0.229240016564727,2.08253614068031,0.295239293798804,2.11581521004011
3.73671604169067,-0.67461095765233,3.71095529437065,-0.594816783070564,3.81838920834749
3.74664804170607,-1.24720612853766,4.75548552632332,-1.53057637855411,5.14906105700061
3.75657904165564,-2.31224064543843,4.51496440351009,-1.50825434044004,5.29208763370723
3.76651104167104,-3.72166739344597,3.08138967812061,-0.66228034928441,4.87692380470676
3.77644204167882,-5.1932554525137,1.57816116571426,-0.416857944130898,5.44373634607857
3.78637404169422,-6.40489033699036,0.5788948148489,-1.3088752502203,6.56284190394456
3.796305041702,-6.55635836541653,0.822666989564896,-3.12476490855217,7.3093619232602
3.80623704165919,-4.83379231542349,2.95299651682377,-5.19653398633003,7.68698263612606
3.81616804166697,-1.26745722904801,4.70329327940941,-5.88034480690956,7.63582808526698
3.82610004168237,2.67326396584511,5.08186716377735,-4.32073480993509,7.18612993196959
3.83603104169015,5.9003001844883,4.71000529825687,-2.13021316766739,7.84445666164228
3.84596304170555,8.16313697397709,4.06700102627277,-0.520323548018932,9.13498983022087
3.85589504166273,9.40748469114304,3.78518452763557,-0.00772563368082047,10.1404363716636
3.86582604167052,9.60490072488785,2.57993714153767,-0.269777373969555,9.94901871647363
3.87575804168591,9.06206276535988,0.462117147445679,-0.130162236392498,9.07477140368109
3.88568904169369,8.4353564375639,-0.981511280536652,0.316685199737549,8.49816992877315
3.89562104165088,8.31491782844067,-1.41838132023811,0.122028467059135,8.43590866534801
3.90555204165867,7.00948307991028,-2.97645905435085,-0.888222463130951,7.66688337551746
3.91548404167406,4.10536694705486,-5.50192411959171,-2.81177602618933,7.418307840011
3.92541504168184,1.94078223779798,-8.39099302768707,-4.49804870098829,9.71636978514649
3.93534704169724,2.21352356538177,-9.70133066654205,-5.78533398449421,11.5102385982322
3.94527804170502,1.58188174903393,-9.66893065989018,-6.01854608774185,11.4984114982881
3.95521004166221,2.39624510765076,-8.65792836248875,-5.14153039813042,10.3507028254523
3.96514104166999,3.80028233081102,-6.74665658354759,-3.5827928057313,8.53205280920134
3.97507304168539,5.33385116815567,-4.65648339450359,-2.55868865221739,7.52859173460146
3.98500404169317,6.68615778207779,-4.760460922122,-2.44614290714264,8.56447950549561
3.99493604170857,7.38853409707546,-5.33153450131416,-3.85177086532116,9.89200864543127
4.00486704165814,7.7609081786871,-5.79816745340824,-6.56418661773205,11.7020932968502
4.01479904167354,7.48798763394356,-6.66262917101383,-8.89237130463123,13.3990616722204
4.02473004168132,6.54090651333332,-6.70649088978767,-10.6514388906956,14.1849789747181
4.03466204169672,4.6670224159956,-6.09163569867611,-9.28425696015358,12.0451878781093
4.04459404165391,3.00729259192944,-5.02403410792351,-6.01027695536614,8.39095683049661
4.05452504166169,2.07499177068472,-4.60421221017838,-4.53157751262188,6.78524543975126
4.06445704167709,1.31702509939671,-6.03681337416172,-3.37607765257359,7.04099219876755
4.07438804168487,0.349496265649796,-8.0561188942194,-1.69157259106636,8.2392121655137
4.08432004170027,-0.837736068293452,-9.10261086702347,1.04927407801151,9.20110332554528
4.09425104170805,-1.83671407833695,-7.953100309968,3.60616383433342,8.92354978391607
4.10418304166524,-2.66562194734812,-4.86532313346863,4.92836430430412,7.42062559863978
4.11411404167302,-3.36694196283817,-2.4886667829752,6.38461219310761,7.63498745213003
4.12404604168842,-3.88639515280724,-2.09326110363007,7.25349908351898,8.49111643344648
4.1339770416962,-4.16951090276241,-2.9554827529192,7.10455412864685,8.75182202960792
4.14390904165339,-4.47733990967274,-3.88749150574207,6.90800816059113,9.10383104087277
4.15384004166117,-4.87100136458874,-4.06752025902271,6.7663885974884,9.27660444363166
4.16377204167657,-4.07513508796692,-3.0239834690094,6.20664165973663,8.01708193162572
4.17370304168435,-2.54288333594799,-1.52527953207493,5.31251350879669,6.08403920864717
4.18363504169975,-1.89054924666882,-0.225559267401695,4.62891435742378,5.00518746557558
4.19356604170753,-1.46886150240898,1.53537416517735,4.20604869157076,4.71230023833555
4.20349804166472,-0.811102951169014,4.3509049808979,3.5849261623621,5.69560863646595
4.2134290416725,-1.13972027152777,4.03838241398335,3.25166849166155,5.30856315763181
4.22336104168789,-1.85788289934397,1.85716339945793,3.11101108789444,4.0717532770249
4.23329204169568,-2.02259457886219,0.884801257252693,2.8195496070385,3.58100852858934
4.24322404165287,-1.61088423103094,1.63755776703358,2.92681326985359,3.72058857746287
4.25315504166065,-1.0784604549408,2.70151186466217,3.57970898419619,4.61254373630392
4.26308704167604,-0.769988546669483,3.04545152127743,4.63315972834826,5.5976625835112
4.27301804168383,-0.705419790744782,3.24208812117577,5.65092930078507,6.55299583618932
4.28295004169922,-1.31933562666178,2.55904211640358,6.91703743100166,7.49231271845913
4.29288204165641,-2.28929222434759,2.35343881130219,8.18947692632675,8.82309840440647
4.30281304166419,-3.19663245141506,3.99367401838303,8.77037207365036,10.1531924784677
4.31274504167959,-4.88903330057859,4.28315387785435,8.55780473470688,10.7463517359575
4.32267604168737,-6.76856259226799,3.16714084982872,7.94238528728485,10.9053062671244
4.33260804170277,-8.15920706033707,2.47062812268734,7.80972950577736,11.5615110659237
4.34253904165234,-8.76218012452126,2.68721425294876,7.29056458353996,11.7110739440315
4.35247104166774,-8.76144103646278,3.34149663448334,5.78162158727646,11.0161516407563
4.36240204167552,-8.6505363124609,3.16127375364304,3.91552715063095,10.0078360850888
4.37233404169092,-8.20482352852821,2.68175704658031,2.57094500094652,9.00670351399807
4.3822650416987,-7.39968883037567,2.39389686584473,1.83382628470659,7.99056042046917
4.39219704165589,-6.56868488073349,2.10139399588108,1.34400093644857,7.02636579644673
4.40212804166367,-5.58869153738022,1.51618945062161,0.690361748635769,5.83171526175112
4.41206004167907,-4.20161620974541,0.758642317056656,-0.128931251317263,4.27150327247805
4.42199104168685,-2.45308501392603,-0.0734293341636658,-1.18969481572509,2.72734150909404
4.43192304170225,-0.341501367688179,-1.18756365180016,-3.95672780156136,4.14519306026371
4.44185404165182,2.9816151291132,-2.69950743913651,-13.6792207109928,14.2582764895399
4.45178604166722,9.32609963536263,-5.41066954851151,-28.866962249279,30.814817683595
4.461717041675,14.965354385376,-8.42755625188351,-25.2435035204887,30.5322781044501
4.4716490416904,15.5271408319473,-8.08583912193775,-14.0302255582809,22.4347972118587
4.48157954169437,12.5972799932957,-4.43318407595158,-9.19680717229843,16.2149883270139
4.49151154165156,9.27984289705753,-2.17163133502007,-8.05422848939896,12.4780632875762
4.50144354166696,6.14866476237774,-2.12394670665264,-7.13640040397644,9.65636777979595
4.51137454167474,3.31173342972994,-2.42172844290733,-5.17510394096375,6.60409325801474
4.52130654169014,0.945175805389881,-2.3789619076252,-2.90437136381865,3.87145839187197
4.53123754169792,-0.579335694909096,-2.30865089356899,-1.27461436718702,2.70002603335825
4.54116954165511,-1.4125063303113,-1.76155908465385,0.118469559252262,2.26103949066916
4.55110054166289,-1.98860939204693,-0.936569581031799,1.29683524847031,2.55215821530061
4.56103254167829,-2.34541584670544,-0.147736920118332,2.50586519837379,3.43542749653722
4.57096354168607,-2.45366447299719,0.328441611528397,4.15771648406983,4.83889962699557
4.58089554170147,-2.61594020247459,0.719523274898529,6.11271549582481,6.68776103183572
4.59082654165104,-2.77712864220142,0.661770325899124,7.32485148668289,7.86154137313649
4.60075854166644,-2.72811757296324,-0.0502924865484238,7.9449989926815,8.4004859276011
4.61068954167422,-2.60297721773386,-1.94652464210987,7.89432819128037,8.53726338881649
4.62062154168962,-2.23148781985044,-4.29187032222748,7.19970353007317,8.67383534971156
4.6305525416974,-1.61680249035358,-5.30249839782715,5.65434407472611,7.91846869458756
4.64048454165459,-0.511587807834149,-4.69500660538673,4.72578693330288,6.6811579272403
4.65041554166237,1.21593785047531,-3.73526333928108,5.6381788623333,6.87166340514855
4.66034754167777,4.46922602087259,-3.43437029957771,6.31232891321182,8.46252780727107
4.67027854168555,5.87191312193871,-0.854574660658836,1.2526314675808,6.06454838844656
4.68021054170094,1.69453245162964,2.41283248901367,-7.78618393778801,8.32573487223404
4.69014154165052,-4.03978662282229,3.16627078413963,-9.41705424427986,10.7250201527148
4.70007354166592,-6.83705687642098,2.57884312748909,-2.9520369887352,7.88100888151218
4.7100045416737,-8.17926417946816,0.791110151410103,1.08290083050728,8.28847947442161
4.71993654168909,-9.14637376785278,-0.233469380736351,2.95926063895226,9.61602228482542
4.72986854170449,-9.40415002405643,-0.499501320719719,4.113393419981,10.27655315132
4.73979954165407,-9.41132397294045,-0.702528927326202,4.43625327944756,10.4281786030343
4.74973154166946,-9.36247107088566,-0.699839208126068,5.00031663179398,10.6371427502218
4.75966254167724,-9.05989461779594,-1.28045778214932,5.33158244848251,10.5899496704376
4.76959454169264,-7.95565203487873,-2.89088388383389,4.66240370035172,9.66372687915661
4.77952554170042,-6.14538564383984,-3.38917073786259,3.6050318133831,7.88977169361706
4.78945754165761,-4.11878601461649,-2.847971752882,2.73269155740738,5.70464236279013
4.79938854166539,-2.24241831243038,-2.02322432398796,2.0767906665802,3.66536983480444
4.80932054168079,-0.809032159745693,-1.2850899463892,1.80216215014458,2.35664541694908
4.81925154168857,0.302657729387283,-0.675596652030945,2.02089479327202,2.15221939004072
4.82918354170397,1.15393222153187,-0.201518440246582,2.52933709144592,2.78742091830656
4.83911454165354,1.67044440820813,0.254310611486435,3.1391899895668,3.56504869512674
4.84904654166894,1.86285961076617,0.567012687921524,3.63309377074242,4.12202858610845
4.85897754167672,1.96190150365233,0.704279583692551,3.95154132127762,4.46763316038861
4.86890954169212,2.02764043360949,0.649549645185471,4.08682250261307,4.60818387626114
4.8788405416999,2.13760945692658,0.496423931121826,4.04668721437454,4.60342137118848
4.88877254165709,2.3164693517983,0.44617237508297,3.80537613272667,4.47727456804179
4.89870354166487,2.4758309751749,0.497578756213188,3.47105105280876,4.2924956665645
4.90863554168027,2.47296993255615,0.645798656344414,3.02357767224312,3.95912340448617
4.91856654168805,2.31045373633504,0.910177003741264,2.49265049099922,3.51851177576012
4.92849854170345,2.0433159416914,1.13247644841671,1.94317067921162,3.0386765593489
4.93842954165302,1.85337645024061,1.31161350131035,1.5333492743969,2.73979821162427
4.94836154166842,1.6705021494627,1.23265913307667,1.25144740641117,2.42407643871435
4.9582925416762,1.52876622676849,1.03517702579498,1.00609706819057,2.10260527951953
4.9682245416916,1.32643502354622,0.705274195075035,0.807800443768501,1.70569139028178
4.97815554169938,1.07454515933991,0.388000180721283,0.50243136048317,1.24804996362227
4.98808754165657,0.975300368070602,0.236978879570961,0.0313112550973892,1.00416641649536
4.99801854166435,0.869944359362125,0.0846536493301392,-0.426747486144304,0.972667901013173
5.00795054167975,0.888304324150086,-0.13352935552597,-0.928901103883982,1.29219654924775
5.01788154168753,1.13392977386713,-0.554575660228729,-1.52934393167496,1.98298859208305
5.02781354170293,1.62205065876246,-0.987264940738678,-2.29595074117184,2.97945132678669
5.03774554166012,2.37354183107615,-1.22714930176735,-3.41408367723227,4.33538505646732
5.0476765416679,3.657833340168,-1.40796275138855,-5.47474567651749,6.73312290666739
5.05760854168329,5.33034927070141,-1.61712057888508,-7.35155630528927,9.2235070566547
5.06753954169108,6.28340683043003,-1.64072052598,-6.92616376519203,9.49446732277941
5.07747154170647,6.13066001594067,-1.57417102575302,-4.85620732426643,7.97782904214128
5.08740254165605,5.61562907516956,-1.55437586188316,-2.63273340582848,6.39395491195082
5.09733454167144,5.56899636089802,-1.71803708910942,-1.39802789345384,5.99331743678957
5.10726554167923,5.85645132958889,-1.97581977725029,-0.436685267686844,6.19617462560826
5.11719754169462,6.18335395395756,-2.15667123377323,0.472312060296536,6.56568165637119
5.1271285417024,6.45362921833992,-2.08528608620167,0.974830105751753,6.85186411746446
5.13706054165959,6.51523665189743,-1.85273939609528,1.26318481475115,6.89032566547395
5.14699154166738,6.46040906488895,-1.49886765897274,1.18959555923939,6.73785033518672
5.15692354168277,6.34336593389511,-1.12878510117531,0.960524161756039,6.5142193577783
5.16685454169055,6.31050224304199,-0.752074724435806,0.407581336498261,6.36821619422856
5.17678654170595,6.28668419480324,-0.484600276350975,0.34345185264945,6.31468089202587
5.18671754165553,6.53469501614571,-0.444112401008606,0.903049540221691,6.61172997413414
5.19664954167092,7.30489786326885,-0.564659768342972,1.10111183747649,7.40896893807808
5.2065805416787,8.36203118383884,-0.853678282499313,-0.410797305107117,8.41552651682517
5.2165125416941,9.16917557001114,-1.05173517107964,-2.69180607140064,9.6138310485365
5.22644354170188,9.61002054691315,-1.28006835758686,-5.11972613096237,10.963697622985
5.23637554165907,9.90699127435684,-1.60349773585796,-8.96257999241352,13.4553900433802
5.24630654166685,9.27949908077717,-1.78938013672829,-12.8196367406845,15.9265209831579
5.25623854168225,7.67342330753803,-1.50770572543144,-11.2236064839363,13.6793254335667
5.26616954169003,5.93283877015114,-1.4037960255146,-7.66511324465275,9.79403799294295
5.27610154170543,4.50597898721695,-2.41885512113571,-5.63081370949745,7.60662670053879
5.286032541655,3.57779723703861,-4.26918487966061,-3.94801428079605,6.8273998980178
5.2959645416704,2.89089265465736,-5.81528927028179,-2.11935430347919,6.83128921225578
5.30589554167818,2.22054197832942,-6.68279037058353,-0.974519180059433,7.1091617963717
5.31582754169358,1.72566697463393,-7.9117043620348,-0.459553728103638,8.11074485165183
5.32575854170136,1.1275435911119,-9.55643256962299,0.406774457283318,9.63131473199307
5.33569054165855,-0.12224627584219,-10.9470133030415,1.92641665220261,11.1158951743351
5.34562154166633,-1.70756794184446,-11.5206473779678,3.71897416591644,12.225869013295
5.35555354168173,-2.81731450885534,-10.8330744588375,5.39689116954804,12.4265521190904
5.36548554169713,-4.14495815187693,-9.61643903553486,7.26051691174507,12.7425148079453
5.37541654170491,-5.58849448621273,-8.1671545958519,9.45109556436539,13.6841840159266
5.38534754165448,-7.27495368719101,-6.80448320746422,10.1256841564178,14.2040635913448
5.39527954166988,-8.69421092033386,-5.72785059213638,9.29024684786797,13.9537185877962
5.40521154168528,-9.18905727267265,-4.33049352049828,8.21931643724442,13.0671003052357
5.41514254169306,-8.63874130904675,-2.50579737067223,6.63634769082069,11.1780133539444
5.42507454170845,-7.71720082640648,-0.73766484618187,5.36206749200821,9.42608645245908
5.43500554165803,-6.89042909145355,0.748002723455429,4.51370198965073,8.27109586391206
5.44493754167343,-6.27533825755119,1.79446136713028,3.88198898345232,7.59406349146844
5.45486854168121,-5.78259222507477,2.54674015939236,3.39432505846024,7.17256585075718
5.4648005416966,-5.35775107741356,3.05153028666973,3.06479732662439,6.88551496630955
5.47473154170439,-4.93126803159714,3.3045767301321,2.86714828133583,6.59228117057741
5.48466312501114,-4.52235966950655,3.49614964127541,2.74923099160194,6.34295438575386
5.49459412501892,-4.0938075864315,3.71268840909004,2.74680878251791,6.17156983800987
5.50452612503432,-3.72135982990265,3.85179016113281,2.87983440041542,6.08097464250828
5.51445712498389,-3.43299328029156,3.97275677382946,3.05492810368538,6.07460492256259
5.52438912499929,-3.27905860394239,4.01930353403091,3.25852669090033,6.12576708846099
5.53432012500707,-3.2867155328393,4.05380269110203,3.56557831048965,6.32053509921648
5.54425212502247,-3.40064648330212,4.09857599079609,3.92860386371613,6.61790374474655
5.55418312503025,-3.50810602784157,4.18196020960808,4.24596295505762,6.91547543651521
5.56411512498744,-3.5870729675889,4.24794662296772,4.17972511142492,6.9557346839472
5.57404612499522,-3.79681551665068,4.2294127035141,3.84344267606735,6.86118003614113
5.58397812501062,-3.95602028846741,4.33245935440064,3.26322814464569,6.71334182835248
5.5939091250184,-4.04148845493794,4.59319781005383,2.62351117730141,6.65686908021371
5.6038411250338,-4.04055056154728,4.8406718569994,1.91182419463992,6.58887127046633
5.61377212504158,-3.8357597270608,4.75200877189636,1.11417173981667,6.20773861544827
5.62370412499877,-3.28056630849838,4.04211586117745,0.354744726419449,5.217917186058
5.63363512500655,-2.42699035227299,3.1202520275116,-0.864595034122467,4.0464527006065
5.64356712502195,-1.31653100967407,1.97840658545494,-3.84255506873131,4.51802788537627
5.65349812502973,0.604010944962502,0.795803126692772,-8.5511786699295,8.60934309242847
5.66343012498692,3.49712495684624,-0.315471902489662,-10.8449255955219,11.3992024570785
5.6733611249947,6.05884626746178,-1.55815784096718,-8.43371629357338,10.5007163789233
5.6832931250101,7.7863792347908,-3.04379675924778,-5.28310084462166,9.88956798015114
5.69322412501788,9.33637728631497,-4.40529461145401,-3.34377587914467,10.851515957509
5.70315612503327,10.8145446324348,-4.95733667314053,-2.85458963155746,12.2343060474383
5.71308712504106,11.8056827688217,-4.54771407365799,-3.07295623898506,13.0191746658733
5.72301912499825,12.3739678108692,-3.63198806226254,-4.11663628578186,13.5371012767971
5.73295012500603,12.6499166285992,-2.39199885964394,-5.57359636545181,14.0287927385084
5.74288212502142,12.0255415856838,-0.860798436999321,-6.03552406311035,13.4826620181081
5.75281312502921,9.788231985569,0.615703622102737,-5.99852989912033,11.4965619775752
5.7627451249864,6.22571761608124,1.71612388014793,-4.95662506699562,8.14080911592746
5.77267612499418,2.10722659349442,2.68283001065254,-2.20692512869835,4.06306525988301
5.78260812500957,-2.07256956160069,2.8748864865303,0.676626931428909,3.60809380455153
5.79253912501736,-4.55645683050156,2.29458190798759,3.16685199737549,6.00461127417666
5.80247112503275,-4.89571169793606,1.32881717920303,4.46902107596397,6.76061369273998
5.81240212504054,-4.6567675691843,0.481980139017105,4.7512123811245,6.67021799781419
5.82233412499772,-4.27401351034641,-0.3813776242733,5.20432247757912,6.74519183044895
5.83226512500551,-3.39830993592739,-1.93276789784431,5.74706922054291,6.9507486498414
5.8421971250209,-1.71847796916962,-4.55071135640144,5.92962864875793,7.66959166396577
5.85212812502869,-0.150523118376732,-8.14082516849041,5.31789411664009,9.72500331459522
5.86206012498587,1.06597898840904,-11.9091340470314,4.93241057753563,12.9341586142771
5.87199112499366,2.34139062345028,-14.1286248421669,5.9643961930275,15.5136769313299
5.88192312500905,4.95765768527985,-13.0655718004704,9.97486224532127,17.1693160321195
5.89185412501683,4.37670406579971,-7.94346234440804,7.58930350899696,11.8258894062261
5.90178612503223,0.33544540643692,-3.27056113779545,0.0901850970648229,3.28895532479389
5.91171712504001,-5.23427659392357,-0.321895653605461,-10.2309433937073,11.4966721706218
5.9216491249972,-13.0547509431839,1.13900194108486,-21.6576751327515,25.3136077983001
5.93158012500498,-12.9847562634945,2.27403128385544,-12.8179457259178,18.3868117446959
5.94151212502038,-9.08897282123566,3.21610777258873,-1.39677118062973,9.74185536133153
5.95144312502816,-8.02612267792225,3.77527408182621,-0.215130758285522,8.87229513018627
5.96137512498535,-8.03121852636337,3.89778903722763,-0.262673810943961,8.93097015602952
5.97130612499313,-7.8792037832737,3.50519002139568,0.0213488421589136,8.6237268693708
5.98123812500853,-7.2112734156847,2.67636649847031,0.358620224408805,7.70026040957383
5.99116912501631,-6.54426281511784,1.20711615622044,0.538018063120544,6.676373914348
6.00110112503171,-5.88872737526894,-0.820916917920113,0.59526994228363,5.97539630405847
6.01103212503949,-5.20016393780708,-2.93557181417942,0.774371911883354,6.02153956344952
6.02096412499668,-4.68193544715643,-4.59621088027954,1.33202730059624,6.69477189431228
6.03089512500446,-4.17213630259037,-5.6269802749157,1.99938171744347,7.28472069428403
6.04082712501986,-3.57189798116684,-5.78717761158943,2.57164403557777,7.27071062150519
6.05075812502764,-2.99143962085247,-5.18150430321693,3.19948647737503,6.78479266951963
6.06069012498483,-2.49245343983173,-4.24672689378262,3.59876008987427,6.09902349926424
6.07062112499261,-2.04791273027658,-3.2536562526226,3.71179729342461,5.34393719167182
6.08055312500801,-1.65644748955965,-2.29473744392395,3.71816374182701,4.67272723719801
6.09048412501579,-1.31360272407532,-1.35537757158279,3.61430315852165,4.07747321265847
6.10041612503119,-1.09802816212177,-0.340971609950066,3.46282051205635,3.64870571330748
6.11034712503897,-1.02236606866121,0.542788258194923,3.406089656353,3.59740159263585
6.12027912499616,-0.835905378162861,1.13547256171703,3.56205594778061,3.83096310537873
6.13021012500394,-0.647261629700661,1.34756627619267,3.74723492860794,4.03443330545863
6.14014212501934,-0.342180814146996,1.37051425874233,3.64767555713654,3.91164083385958
6.15007412503473,0.0895508386194706,1.20382943630219,3.2957386636734,3.50986011169061
6.16000512498431,0.562932500839233,0.859431357979775,2.8779200220108,3.05580413519432
6.16993612499209,1.06808588638902,0.453209499120712,2.37556526005268,2.64376939530773
6.17986812500749,1.60401653006673,0.0467870807647705,1.77143678605556,2.39019797227022
6.18979912501527,2.18063794746995,-0.187947637438774,1.19228820204735,2.49239991355843
6.19973112503067,2.68276744544506,-0.205103952884674,0.825777781382203,2.81446580047675
6.20966212503845,3.09956428617239,0.0139555495977402,0.585466500520706,3.15440399199467
6.21959412499564,3.44057594954968,0.294935896396637,0.43796705044806,3.48085696127852
6.22952512500342,3.68400313854218,0.598594669103622,0.404926115870476,3.7542189416684
6.23945712501882,3.88221380889416,0.839113453030586,0.423888709321618,3.99441824086008
6.2493881250266,4.16880982160568,0.965279409885406,0.378104426041245,4.2957773015901
6.259320125042,4.51777077466249,0.936453806161881,0.292665422558784,4.62307814697428
6.26925112499157,4.93124581217766,0.692386347055435,0.333236255273223,4.99075450363339
6.27918312500697,5.46768691778183,0.219827826619148,0.537359045371413,5.49842516070567
6.28911412501475,6.18819954156876,-0.414121447205544,0.687239116206765,6.24000062036472
6.29904612503015,6.90121252655983,-1.05248419940472,0.854046657085419,7.03305431652719
6.30897812498733,7.62038672268391,-1.57000429987907,0.868692324310541,7.82878238675798
6.31890912499512,8.26929960608482,-1.91717688202858,0.629733577519655,8.51195909005883
6.3288401250029,8.79367264330387,-2.10111216008663,0.0528861652314663,9.04135763109322
6.3387721250183,9.02877456665039,-2.05221189558506,-0.706981143504381,9.28601993197541
6.34870312502608,9.02784485936165,-1.78522685945034,-1.45399334862828,9.31681889929502
6.35863512504147,8.82041137576103,-1.24605685830116,-2.05050816312432,9.14094624526441
6.36856612499105,8.60343114316463,-0.482913354635239,-2.28462424591184,8.9146924057013
6.37849812500645,8.50053535044193,0.32759610414505,-2.21189058423042,8.78970308987574
6.38842912501423,8.55543602764607,1.01622327625752,-2.00531167119741,8.84587306425954
6.39836112502962,9.12736154615879,1.55044127047062,-1.54804990544915,9.38664239423437
6.40829212503741,11.2562854027748,1.84601568281651,-3.23713962256908,11.8570994727181
6.41822412499459,12.3117019808292,1.50216198027134,-6.54455576062203,14.023755074288
6.42815512500238,11.279309399128,0.983780000209808,-6.58845957934856,13.099558894817
6.43808712501777,10.641773443222,0.608967629671097,-5.86303120136261,12.1652504478537
6.44801812502556,9.68888194441795,0.273880657553673,-5.88359351992607,11.3386999543672
6.45795012504095,7.98295268476009,-0.228679926395416,-6.37341360569,10.2176430288521
6.46788112499053,6.08313618600369,-0.471400187015534,-8.1590415841341,10.1880677051841
6.47781375003979,4.77390016257763,-0.114962106943131,-9.09169703900814,10.2694836334356
6.48774474998936,4.19393940031529,-0.396606112718582,-6.87353823959827,8.06175861914647
6.49767675000476,4.39493334531784,-1.54801759958267,-4.33018829584122,6.36100057191042
6.50760775001254,5.15383177042008,-2.85239049375057,-1.73139446854591,6.13969382399003
6.51753975002794,5.67863867104054,-3.94723192334175,-0.319089026637375,6.92310586513059
6.52747075003572,5.63970264673233,-5.55231366991997,0.146854575276375,7.9155542635383
6.53740274999291,5.1795565956831,-7.56326761186123,0.576648899316788,9.18495222903182
6.54733375000069,4.23406971842051,-9.47936977565289,1.25604390263557,10.457697835057
6.55726575001609,3.05272224158049,-10.7694006192684,2.6672273004055,11.5070936493351
6.56719675002387,1.91777183622122,-11.4182146847248,4.66879470705986,12.4840345809734
6.57712875003926,0.42498615860939,-11.6961269974709,5.92987890958786,13.1203454168841
6.58705974998884,-1.30248102754354,-11.920081204176,6.4816245174408,13.6307097807249
6.59699175000424,-3.50083676934242,-11.8710780286789,6.1695703125,13.8290256160528
6.60692275001202,-5.30563016653061,-11.1812609481812,5.16153489232063,13.4093903776407
6.61685475002741,-6.77163881242275,-9.8323585832119,4.53313930392265,12.7702670083103
6.6267857500352,-7.9781743401289,-7.6722579574585,4.28530506849289,11.8692311249435
6.63671774999239,-8.8730468416214,-5.4707882809639,4.6269169485569,11.4047729095139
6.64664875000017,-9.81154366493225,-3.68959600031376,4.92885897874832,11.5833137990297
6.65658075001556,-10.6572171092033,-2.41025679051876,4.54803099274635,11.8351256951466
6.66651175002335,-10.5313008284569,-1.40107414662838,3.35511947751045,11.1412805642878
6.67644375003874,-9.88259902954102,-0.687826688289642,2.0689822947979,10.1202547827609
6.68637474998832,-9.33943830370903,-0.210781599283218,1.17656628169119,9.41561707625137
6.69630675000371,-9.03398092746735,0.209929659962654,0.548886392489076,9.05307451266339
6.7062377500115,-8.73948415696621,0.606724637746811,0.212903115302324,8.76310594780286
6.71616975002689,-8.37535289525986,1.10772986233234,0.103903998881578,8.44892878470544
6.72610075003468,-8.15431644916534,1.66736277937889,0.311895160675049,8.32888071606498
6.73603274999186,-8.03478942096233,2.17757795333862,0.632460426539183,8.34863419807173
6.74596374999965,-8.04619149148464,2.69830992937088,1.08122384905815,8.55518082826736
6.75589575001504,-8.04878414690495,3.18774468362331,1.62336014270782,8.80794757956526
6.76582675002283,-8.04960860431194,3.68404348433018,2.27849373266101,9.14111091535509
6.77575875003822,-7.88382308363915,4.139404758811,2.97314192891121,9.38769998992503
6.7856897499878,-7.49122991502285,4.57196598529816,3.40039680719376,9.41191250792474
6.79562175000319,-7.03143177330494,4.87325780510902,3.24613673329353,9.15025016646736
6.80555275001098,-6.6436900395155,4.92129092752934,2.52797118186951,8.6457133905134
6.81548475002637,-6.16588188886642,4.78166292607784,1.65916966080666,7.97717016049047
6.82541575003415,-5.61071916818619,4.56369159042835,0.945030502080917,7.29386956057357
6.83534774999134,-5.0090617275238,4.07326339423657,0.54665516808629,6.47927510928243
6.84527874999912,-4.35627184778452,3.27935184180737,0.166674918718636,5.45518408879986
6.85521075001452,-3.90935366034508,2.02498141229153,-0.803899766206741,4.47547210871511
6.8651417500223,-1.85922044992447,-0.256078809499741,-11.9647305428982,12.1110302618007
6.8750737500377,2.59095388054848,-2.88594707965851,-18.7046569812298,19.1025109695869
6.88500474998727,4.31500219970942,-3.74595789670944,-7.21190900802612,9.20125404971873
6.89493675000267,5.0006510925293,-4.3697388625145,-1.69414068818092,6.85355686830817
6.90486775001045,7.26817910313606,-4.90639222204685,0.416327601671219,8.77909111376223
6.91479975002585,12.0945726442337,-5.45407693862915,1.36530789792538,13.337530069517
6.92473075003363,15.1293758010864,-5.3527400135994,1.08822004258633,16.0852124836688
6.93466274999082,18.1550888764858,-4.09434026777744,1.08125308513641,18.6424242676633
6.9445937499986,16.7928805875778,-2.22112333774567,-1.82042417407036,17.0366713733542
6.954525750014,12.3877380037308,-0.228949483036995,-3.81221912920475,12.9630816322329
6.96445675002178,10.6104417228699,2.84633219361305,-2.34157305657864,11.2323659524657
6.97438875003718,9.32459397733212,5.65694316208363,0.0536920577287674,10.9065091398763
6.98431974998675,8.25178251743317,7.48290172576904,2.44502667367458,11.4045555979842
6.99425175000215,7.25773422181606,8.01276179015636,3.62472231209278,11.4025290782393
7.00418275000993,5.95028042972088,7.35210535883904,3.62902820169926,10.1306039350336
7.01411475002533,4.00327894717455,5.72791783511639,2.48342358469963,7.41637901915603
7.02404575003311,1.71814701676369,3.89481338918209,0.656693188548088,4.30730152783056
7.03397675004089,0.196739510893822,2.10759555280209,-0.526600826382637,2.18127803814295
7.04390874999808,-0.302855949997902,-0.394626245498657,-0.559448145031929,0.748621284138492
7.05383975000586,0.232259007096291,-3.6453846180439,0.461379228830338,3.68179902393443
7.06377175002126,1.33362066686153,-7.00197057723999,2.08949666619301,7.42779458289245
7.07370275002904,2.41721497714519,-9.85921835303307,3.11827099084854,10.6193563246972
7.08363474998623,3.03790510475636,-11.6083439183235,4.29853965640068,12.7459781550587
7.09356574999401,3.36404817581177,-12.2350332891941,8.56481905460358,15.3091144471185
7.10349775000941,3.00566414237022,-11.2055245542526,12.3099981021881,16.915491442715
7.11342875001719,-0.136852912902832,-8.55218205213547,7.78881401538849,11.5682397251678
7.12336075003259,-4.00541288852692,-6.75108234107494,1.08452284812927,7.92443278674669
7.13329175004037,-6.76002682685852,-4.64470885634422,-2.39647782683372,8.54484575838295
7.14322374999756,-9.14615800559521,-2.15671333372593,-4.55717896163464,10.4437301169434
7.15315475000534,-12.6731897163391,-0.48892838537693,-11.5284943413734,17.1392814998596
7.16308675002074,-14.0762010455132,0.702310826182365,-14.0180387914181,19.8780805896339
7.17301775002852,-11.1366677427292,1.64736062407494,-6.07335847198963,12.7915928862275
7.18294974998571,-10.3690242218971,1.45972464323044,-2.18012324631214,10.6958121111702
7.19288074999349,-10.8097288656235,0.496517486572266,-1.2119758502394,10.8887856634397
7.20281275000889,-10.5555316901207,-0.591333011984825,-0.291193093657494,10.5760917833574
7.21274375001667,-10.0204342746735,-1.87560259401798,0.522163374423981,10.2078226245036
7.22267575003207,-9.71934827685356,-3.31081570923328,0.984722644463182,10.3148877974412
7.23260675003985,-8.65529477655888,-4.14739439427853,1.13545618951321,9.66458838694769
7.24253874999704,-6.75466551482678,-4.17975873291493,1.24330223500729,8.04000558023082
7.25246975000482,-5.40010129094124,-3.69298270761967,1.37732568025589,6.685524755821
7.26240175002022,-4.3362673535943,-2.86386331558228,1.32005863487721,5.3616678796527
7.272332750028,-3.36360144853592,-1.96912003755569,1.25004816770554,4.09314901371551
7.28226474998519,-2.75960073620081,-1.22476656138897,1.18555922627449,3.24360910594066
7.29219574999297,-2.5584041851759,-0.69678345322609,1.35915604233742,2.97963828389245
7.30212775000837,-2.44130112022161,-0.364407835006714,1.67264281511307,2.98169049647326
7.31205875001615,-2.32752278208733,-0.130530318617821,2.16359609127045,3.18049501043073
7.32199075003155,-2.05081850409508,0.000553731322288513,2.65618191003799,3.35576506665324
7.33192175003933,-1.66789195239544,-0.0363375216722488,3.02903897166252,3.45807187204041
7.34185374999652,-1.19793193459511,-0.042258996963501,3.30192267894745,3.51276530962355
7.3517847500043,-0.808276991844177,-0.217172021269798,3.44834514498711,3.54845876703157
7.3617167500197,-0.29087281242013,-0.511282875537872,3.35709876000881,3.40824430701148
7.37164775002748,0.330943196564913,-0.825539141893387,3.16121118843555,3.28394495265082
7.38157974998467,0.953415701687336,-1.05012426316738,2.92561985313892,3.25130958129142
7.39151074999245,1.51522656038404,-1.14641854941845,2.59633214950562,3.21731684021024
7.40144175000023,2.12185208782554,-1.03538401722908,2.11601963639259,3.17045981638974
7.41137375001563,2.68654796272516,-0.720980985760689,1.70404470205307,3.26207324939927
7.42130475002341,3.2224698355794,-0.294123133420944,1.38358220100403,3.51924991521881
7.43123675003881,3.69703219681978,0.167095881700516,0.989973297938704,3.83092876841048
7.44116774998838,4.03611047834158,0.674502053260803,0.648890590891242,4.14321129224409
7.45109975000378,4.32281554162502,1.20805814266205,0.354810215234756,4.5024469982224
7.46103075001156,4.54157771319151,1.67466010451317,0.127837091088295,4.84218513818542
7.47096275002696,4.79278345316649,2.11035134553909,-0.0235678604990244,5.23687993700578
7.48089387500659,5.11593479633331,2.3199722725153,-0.151045932546258,5.61941945927803
7.49082587502198,5.54937836766243,2.13260643303394,-0.250982449427247,5.95034475098863
7.50075687502977,6.18500403821468,1.57556149363518,-0.30365650691092,6.38974774518894
7.51068887498695,6.82648569524288,0.660521945357323,-0.163327935934067,6.8603113779413
7.52061987499474,7.47156105101109,-0.365918755531311,0.154557185545564,7.48211260261694
7.53055187501013,8.08154083371162,-1.31798638164997,0.486391351595521,8.20274142564973
7.54048287501792,8.74027294635773,-2.12157273709774,0.881623222455382,9.03718438242807
7.55041487503331,9.34840208530426,-2.68596996545792,1.24215910434723,9.80561142634032
7.56034587504109,9.77740878939629,-2.81062324762344,1.19135264754295,10.2428827390463
7.57027787499828,10.0356159853935,-2.30267386972904,0.67498985722661,10.3185031115941
7.58020887500607,9.97182052373886,-1.26784241437912,-0.0792414665222168,10.0524080774397
7.59014087502146,9.49225586950779,-0.31964096724987,-0.778778958320618,9.52951145159459
7.60007187502924,8.78409256517887,0.327986113429069,-1.31669107720256,8.88828062546508
7.61000387498643,8.07969369828701,0.689014257788658,-1.79573255181313,8.30547086583393
7.61993487499421,7.44925450801849,0.774471899271011,-2.25041101768613,7.82020135268379
7.62986687500961,6.6956922519207,0.521310265660286,-2.96883428514004,7.3428901760912
7.63979787501739,5.91880545258522,-0.331283358335495,-4.27864976763725,7.31087207405279
7.64972987503279,5.42706631064415,-1.90390194833279,-7.14965019464493,9.17580455735519
7.65966087504057,6.19690078318119,-2.57151422739029,-7.54937345802784,10.0998665509519
7.66959187499015,7.60264568567276,-2.18796085417271,-5.49528577566147,9.63252614205942
7.67952387500554,7.96561159729958,-1.50160357117653,-3.49643615484238,8.82784499121346
7.68945487501333,7.51612385094166,-0.788346172571182,-1.90993934467435,7.79496476777392
7.69938687502872,6.67332782149315,0.0953528845310211,-5.53503046989441,8.67058006642938
7.7093178750365,5.56075763404369,0.481942716836929,-10.4490188097954,11.8463618184802
7.71924987499369,4.72732533574104,-0.524070736169815,-8.8219749212265,10.0224496245777
7.72918087500148,4.6348077660799,-2.21537669420242,-5.92946726560593,7.84524817833203
7.73911287501687,5.37437295734882,-3.66604575455189,-4.02712827801704,7.65124423389783
7.74904387502465,6.06681777656078,-5.08350613832474,-2.72432185292244,8.37079698419989
7.75897587504005,6.16370497047901,-6.95928297936916,-1.48631076335907,9.41445687415488
7.76890687498963,5.67934267580509,-8.85346977889538,-0.241998714208603,10.5212843195455
7.77883887500502,5.0757001054287,-10.3798006403446,2.78917683005333,11.8862315425392
7.7887698750128,3.34452461510897,-11.2624729263783,5.45778407335281,12.9544026612506
7.7987018750282,-0.172045842111111,-11.424901560545,5.05217909574509,12.4932977654186
7.80863287503598,-2.36117350816727,-11.4030575323105,4.99648085832596,12.671609305391
7.81856487499317,-4.01619749307633,-11.3006587529182,4.97087180793285,12.9824611335525
7.82849587500095,-4.78363928496838,-10.8050744819641,4.2533091044426,12.5588008069011
7.83842787501635,-5.5764819663763,-10.0584154486656,5.18761581301689,12.6166647844325
7.84835887502413,-6.67048432052136,-8.49806197822094,6.77529390692711,12.752138094502
7.85829087503953,-7.64279032945633,-6.61827043890953,7.45871998071671,12.5636878094498
7.8682218749891,-8.57746015012264,-4.8026105761528,7.33602434635162,12.2660158235419
7.8781538750045,-9.21427339017391,-3.13399298429489,6.1128990983963,11.4931406291601
7.88808487501228,-9.31195054292679,-1.8894020229578,4.53897716403008,10.5301745766088
7.89801587502006,-9.33875827252865,-1.02541685342789,3.17911945581436,9.91819975148482
7.90794787503546,-9.48637941777706,-0.383965601921082,2.0608137345314,9.71523428898738
7.91787887498504,-9.35999477505684,0.159795632958412,1.20828399136662,9.43901409243554
7.92781087500043,-9.05429532408714,0.71209087908268,0.583308877944946,9.10096623897421
7.93774187500821,-8.87377715885639,1.31271043896675,0.184092568159103,8.97223605548055
7.94767387502361,-8.71571288645268,1.88491194605827,0.0381179988384247,8.91728642274688
7.95760487503139,-8.42337256908417,2.4558615642786,0.0713196587562561,8.77436880659946
7.96753687498858,-8.20542169868946,3.02805956304073,0.311157242059708,8.75185173548618
7.97746787499636,-7.89981229484081,3.51634650886059,0.755387829914689,8.67999641922031
7.98739987501176,-7.75298929452896,3.83286974072456,1.1930460742861,8.73058373683067
7.99733087501954,-7.80421382725239,3.88236466705799,1.59632042482495,8.86153190866066
8.00726287503494,-7.72273872435093,3.66099668383598,1.7954670882225,8.73311468999106
8.01719387498451,-7.44352014362812,3.24365692913532,1.65472928524017,8.28646072880072
8.02712587499991,-7.17636787712574,2.81366847753525,1.32226128101349,7.82082867122054
8.03705687500769,-6.79200583398342,2.57334908366203,1.00927736878395,7.33294685391818
8.04698887502309,-6.59027513980866,2.44014658749104,0.966552933454514,7.09367791487559
8.05691987503087,-6.34622405290604,2.30177749156952,1.15696056760848,6.849182221651
8.06685187498806,-5.74213533997536,2.02606431663036,1.38196135282516,6.24394683340747
8.07678287499584,-5.23882923603058,1.33105256974697,1.87407003879547,5.72094146255926
8.08671487501124,-4.44460719645023,0.306892282962799,1.93442733764648,4.85702842576749
8.09664587501902,-2.92934803783894,-1.18033883213997,-2.03067718505859,3.75472096371566
8.1065768750268,2.82892854094505,-2.72559420704842,-18.212481637001,18.6313227616659
8.11650887498399,5.78550764679909,-2.94914846420288,-10.61818577528,12.4465033062881
8.12643987499177,5.45524696648121,-3.05859313845634,-2.66794767737389,6.7994599977586
8.13637187500717,6.66297064840794,-3.13372284293175,-0.239890756420791,7.36701732676624
8.14630287501495,9.24396964430809,-3.42384589612484,0.33440748911351,9.86334242911983
8.15623487503035,12.1678417646885,-3.77445196330547,0.0725048162788153,12.7400203211055
8.16616587503813,13.3757163047791,-3.85761925041676,-0.28734800118953,13.9238493894794
8.17609787499532,14.4254412031174,-2.72653093099594,-0.323581478968263,14.6844145200211
8.1860288750031,15.0497016406059,-0.758347032666206,0.0214569060131907,15.0688111704947
8.1959608750185,13.8683547484875,1.63154273629189,0.399844848923385,13.9697197907994
8.20589187502628,12.6545815372467,3.75873055458069,0.937871171236038,13.2342771468108
8.21582387504168,11.4587019753456,5.4661058306694,1.3993088722229,12.7725576621031
8.22575487499125,10.1995789289475,6.68114496409893,1.78243598341942,12.3225884616067
8.23568687500665,8.37384782195091,6.96985416054726,1.67365730702877,11.022763861476
8.24561787501443,6.24952572405338,6.25979577362537,1.14395921051502,8.91909510984299
8.25554987502983,4.450405587852,4.37806822121143,0.132660441007465,6.24429259713012
8.26548087503761,3.80701890796423,1.57432656168938,-0.574549164175987,4.15956774563093
8.2754128749948,4.22084653258324,-2.33222218930721,-0.602675440907478,4.8598378037739
8.28534387500258,4.85833249479532,-7.13301545083523,0.151412470741197,8.63169912520902
8.29527487501036,4.88789601713419,-11.1556618380547,1.96224137306213,12.336559882135
8.30520687502576,4.31790388047695,-12.254407453537,3.62813182353973,13.4899272232033
8.31513787503354,2.77368580162525,-10.0170639395714,5.47892409682274,11.749617532258
8.32506987499073,0.654975861310959,-6.04356515407562,8.12897812485695,10.1505644426731
8.33500087499851,-1.84265470325947,-2.99416383862495,7.69871076107025,8.46348278373581
8.34493287501391,-4.23283741772175,-2.17686517775059,4.0087949180603,6.22302910984952
8.35486387502169,-6.6942368799448,-2.14485810399055,0.83519757270813,7.0788967132262
8.36479587503709,-8.60390301346779,-1.70298167824745,-0.845340152978897,8.81146376238619
8.37472687498666,-9.51627389252186,-1.06561002910137,-1.73858595907688,9.73230058458502
8.38465887500206,-10.3330264234543,-0.71675169467926,-2.25179549217224,10.5997995734918
8.39458987500984,-10.6998012113571,-0.781508438587189,-2.79067196309567,11.0853214390811
8.40452187502524,-10.7126311719418,-0.867215756177902,-3.16768522560596,11.204765034678
8.41445287503302,-10.8736365938187,-1.20809848845005,-3.19825622320175,11.3984348750816
8.42438487499021,-11.3323109006882,-2.10068414390087,-3.30971467852592,11.9911782355006
8.43431587499799,-11.7226499676704,-3.59074063360691,-4.52150334477425,13.0674378919191
8.44424687500577,-11.9639435076714,-5.14399909257889,-4.99305497467518,13.9473032841239
8.45417887502117,-11.0074045157433,-4.54869523644447,-2.70194689750671,12.2128661486239
8.46410987502895,-10.1275108265877,-3.19055953323841,-0.878835416212678,10.6545059653922
8.47404187498614,-9.21064226925373,-1.92659089922905,-0.0112794251739979,9.409984629668
8.48397262499202,-7.826964173913,-0.670633535385132,0.138951478600502,7.85687119863283
8.49390462500742,-6.23147361516953,0.0977145749330521,0.231962553262711,6.23655499300892
8.5038356250152,-4.86788158267737,0.298789211511612,0.54496276460588,4.90739549157107
8.5137676250306,-3.84172622591257,0.102974145412445,0.635824475884438,3.89534810172616
8.52369862503838,-3.28351769059896,-0.298041352629662,0.637624833583832,3.35810698173189
8.53363062499557,-2.90122000694275,-0.742744322419167,1.15881347715855,3.21116728496276
8.54356162500335,-2.35881678789854,-1.19630933225155,1.79609858751297,3.19705220372928
8.55349362501875,-1.85277126342058,-1.62494181454182,2.48133495926857,3.49717320636138
8.56342462502653,-1.34241575628519,-2.05298723638058,3.04066206693649,3.9067201666834
8.57335662504192,-0.574847956895828,-2.32548034965992,3.30037082791328,4.07808246997811
8.5832876249915,0.31334410071373,-2.48277512848377,3.33843503236771,4.17223025843609
8.5932196250069,1.12799660414457,-2.57031847178936,3.30668582081795,4.33740527308456
8.60315062501468,1.87708427846432,-2.56659204125404,3.15573410153389,4.47989930849683
8.61308162502246,2.48352035611868,-2.4358518075943,3.00719026565552,4.59830845873454
8.62301362503786,3.02435769081116,-2.18103716611862,2.7971910238266,4.66132386621392
8.63294462498743,3.53702109396458,-1.7326750087738,2.47411598682404,4.65122895818277
8.64287662500283,3.95124252855778,-1.081697473526,2.06268367409706,4.58661649618788
8.65280762501061,4.21473385334015,-0.328429332375526,1.64976149082184,4.53801280930925
8.66273962502601,4.27604658722878,0.403995823860168,1.3813029563427,4.51173856723197
8.67267062503379,4.38100176930428,0.97145173072815,1.30672698318958,4.67380256069698
8.68260262499098,4.61868640780449,1.24507920384407,1.31085511744022,4.95992212604212
8.69253362499876,5.28742778420448,1.05701579153538,1.19152864873409,5.52212961433239
8.70246562501416,6.38818718075752,0.523186637163162,0.701745400428772,6.44787610928775
8.71239662502194,7.68233738780022,-0.13092032790184,0.0568700194358826,7.68366332366025
8.72232862503734,8.9317739367485,-0.781175147294998,-0.603019768819213,8.98612558945834
8.73225962498691,10.0044187510014,-1.2793374556303,-1.12332014724612,10.1482484707449
8.74219162500231,10.8188984692097,-1.41573954820633,-1.3968069948256,11.0001796501792
8.75212262501009,11.3083630442619,-1.17719595372677,-0.944176954776049,11.4086079420861
8.76205362501787,11.448005079031,-0.666869097948074,-0.0693889081478119,11.4676217893638
8.77198562503327,11.248589297533,-0.0826316821575165,0.479016770124435,11.259087274088
8.78191662504105,10.718091301918,0.494898977279663,0.40930202588439,10.7373150415901
8.79184862499824,9.75296508908272,0.864119070768356,-0.281424735188484,9.79521463158964
8.80177962500602,8.36943025052548,1.08788967490196,-2.39668130993843,8.77353679906669
8.81171162502142,6.84997746884823,1.17306255698204,-6.59668661177158,9.58199046859514
8.8216426250292,6.08824957609177,0.658788830637932,-8.34328208684921,10.3494512707145
8.83157462498639,7.46404620945454,0.147846263051033,-6.77746088504791,10.0830461856884
8.84150562499417,9.06503139674664,-0.213394719958305,-5.23210084497929,10.4687731269018
8.85143762500957,9.7403163921833,-0.607428642511368,-3.50949298739433,10.3710787290497
8.86136862501735,9.38358712077141,-0.953512473106384,-1.78769131466746,9.59982986963905
8.87130062503275,8.22536070406437,-0.904485908746719,1.16907702170312,8.35711640183155
8.88123162504053,6.41773140728474,-0.12824113368988,3.78851627111435,7.45362849496252
8.89116362499772,5.04700080156326,0.67431552708149,0.135612133741379,5.09365381350768
8.9010946250055,4.65408252775669,0.345418417453766,-3.10183563709259,5.60367579164105
8.91102562501328,4.16674809336662,-1.66747855424881,-6.44454381465912,7.85330627070632
8.92095762502868,3.524630843997,-5.17136523127556,-9.22450426340103,11.1470857109473
8.93088862503646,4.26581425219774,-7.11109190046787,-7.51364170789719,11.1901568785163
8.94082062499365,5.13538380503655,-7.9914036655426,-5.18303276538849,10.821207327178
8.95075162500143,5.10990631699562,-9.86294185996056,-3.91975468754768,11.779356583107
8.96068362501683,4.31267676204443,-12.0605395102501,-2.07455586075783,12.9753449338191
8.97061462502461,2.72840379416943,-14.0354716801643,0.46261766910553,14.3056865496383
8.98054662504001,-0.231728956997395,-15.3723182559013,3.77703000068665,15.8312293425468
8.99047762498958,-2.88148448467255,-15.3969198310375,5.39690052509308,16.5678794176127
9.00040962500498,-5.00262920558453,-14.4704998469353,4.0944554579258,15.8488558036743
9.01034062501276,-6.26425836861134,-12.7697681772709,2.88675633430481,14.513485947339
9.02027162502054,-6.92866695821285,-10.5690972304344,2.10961678907275,12.8126002466691
9.03020362503594,-7.39005261898041,-8.18182993769646,1.97473336458206,11.2006602797281
9.04013462498551,-8.34333178818226,-6.35159530520439,2.22514973044395,10.7193861564775
9.05006662500091,-9.05482391238213,-4.79287145376205,2.78083168387413,10.6157655263562
9.05999762500869,-9.58024710953236,-3.27702114164829,3.15791160464287,10.6062438188668
9.06992962502409,-10.349567027092,-2.10204245209694,3.17091464281082,11.0266413649252
9.07986062503187,-10.6908865463734,-1.1464261507988,2.76801575660706,11.102759084817
9.08979262498906,-10.5965019607544,-0.351929876804352,2.40511767268181,10.8717201703275
9.09972362499684,-10.4714089679718,0.36755246758461,1.96826312810183,10.6611237837478
9.10965562501224,-10.0709074401855,1.09263235151768,1.41344290807843,10.2281397614016
9.11958662502002,-9.61463458478451,1.79047590494156,1.17663169741631,9.85045503093514
9.12951862503542,-9.23639925420284,2.43722765743732,1.07013855144382,9.61230182404311
9.13944962498499,-8.79895209431648,2.96877464354038,1.15377624705434,9.35769097964191
9.14938162500039,-8.51623453974724,3.4865426659584,1.39629302456975,9.30762400981015
9.15931262500817,-8.31697487890721,3.92287417709827,1.6750835891068,9.34702722667549
9.16924362501595,-8.2126102656126,4.27024965763092,2.08135251805186,9.48757228260967
9.17917562503135,-8.17852333724499,4.52640272676945,2.70382151484489,9.7307356559977
9.18910662503913,-8.16614478170872,4.57124385416508,3.354837641716,9.94168630426172
9.19903862499632,-8.03082617819309,4.3347128713131,3.82709035277367,9.89598531473103
9.2089696250041,-7.60076697528362,3.86797993183136,3.83865731477737,9.3524444583171
9.2189016250195,-7.29494707167149,3.38209209859371,3.48566090583801,8.76382517467948
9.22883262502728,-7.03571836709976,3.13711598217487,3.25554490327835,8.36309764644797
9.23876462498447,-6.48932939350605,3.0077860969305,3.00609800577164,7.75853068580735
9.24869562499225,-5.71849329292774,2.79725125014782,2.43500863909721,6.8157939500979
9.25862762500765,-5.19099199533463,2.26580775976181,1.85284698486328,5.95930571871774
9.26855862501543,-4.77039358735085,1.32032059013844,1.52414341807365,5.17908433971091
9.27848962502321,-4.04022019386292,-0.149515643119812,1.42928871631622,4.28819313662807
9.28842162503861,-0.201760514974594,-3.09319111347199,-10.5334034872055,10.9800331326521
9.29835262498818,7.01274933457375,-5.14405639529228,-17.1395643424988,19.2199020621378
9.30828462500358,7.09824030518532,-5.15993509411812,-5.88628733217716,10.5668502479508
9.31821562501136,8.12341040611267,-5.5105639654398,-3.46100729048252,10.4083948478195
9.32814762502676,12.2147937369347,-6.39532838523388,-2.37429816842079,13.9906648513715
9.33807862503454,14.0649217665195,-6.88176761090756,-2.49237625658512,15.8553678340567
9.34801062499173,14.6652366864681,-6.24081746578217,-2.38208022773266,16.1149395258778
9.35794162499951,15.5445257735252,-4.44907154560089,-0.363842445798218,16.1727827063567
9.36787362501491,16.2232424998283,-1.65548123717308,1.70204027652741,16.3960713720632
9.37780462502269,15.3839167928696,1.24683512270451,1.74200014829636,15.5323552054995
9.38773562503047,14.7408271515369,3.80916863679886,1.37252160787582,15.2867775014601
9.39766762498766,13.4052786576748,5.41557828605175,0.673749589696527,14.4735594299358
9.40759862499544,11.0213010084629,6.20027462661266,-0.268766755834222,12.6485065100036
9.41753062501084,7.67210592985153,6.10875576138496,-1.2088042473793,9.88126075253554
9.42746162501862,4.37737795740366,5.08647360026836,-2.16870012581348,7.05244012409137
9.43739362503402,2.0372488707304,3.88884513616562,-3.06101914823055,5.35194709243331
9.4473246250418,0.437082293629646,3.0208119392395,-3.47584226131439,4.62577832685437
9.45725662499899,-0.564346942305565,1.90726702094078,-3.26899876177311,3.82655300040808
9.46718762500677,-0.930493154525757,-0.0247033166885376,-2.72105033576489,2.87585512400067
9.47711962502217,-0.86258710026741,-3.01935013532639,-1.92380177736282,3.68260030736809
9.48705054167658,-0.542591791749001,-6.81153904259205,-0.842986063957214,6.88491797229679
9.49698254169198,-0.154498640298843,-10.5575466406345,1.37541013240814,10.6478830727689
9.50691354169976,0.628069898486137,-13.1376668000221,7.12595727682114,14.9590115935802
9.51684454170754,0.317840024828911,-11.9720243597031,10.0312504541874,15.6223037745827
9.52677654166473,-1.51117897152901,-7.55906755685806,5.79226351976395,9.64227571144509
9.53670754167251,-3.20220192432404,-4.2774072343111,2.47283135354519,5.88771642620105
9.54663954168791,-4.47770945370197,-2.15257408976555,0.444965473227203,4.98813105642447
9.55657054169569,-5.81264282047749,-0.632609091997147,-0.864942943453789,5.91059532679716
9.56650254165288,-7.10719707012177,0.424754608869553,-1.46486668467522,7.26900963509987
9.57643354166066,-8.06606559276581,1.12027506351471,-1.82053994894028,8.34450693992286
9.58636554167606,-8.31691640675068,1.29379937410355,-2.48601390123367,8.77640475675754
9.59629654168384,-8.24507283747196,0.82806163072586,-2.97555565953255,8.80459219058296
9.60622854169924,-8.17943024039269,0.236809310317039,-2.95144992828369,8.69886282143068
9.61615954170702,-8.16948938906193,-0.337465034723282,-2.36072736561298,8.5104331982814
9.6260905416566,-8.34106189906597,-1.11127152085304,-1.63592917129397,8.5723102049914
9.63602254167199,-8.15365279018879,-2.0029631370306,-0.911207283139229,8.4453664138451
9.64595354167977,-7.84307091414929,-2.84076096653938,-0.146988549605012,8.34297847696512
9.65588554169517,-7.65479407846928,-3.44123726963997,0.583894695863128,8.41302082165405
9.66581654170295,-7.4649420028925,-3.87225658535957,1.25748758018017,8.50299977559194
9.67574854166014,-7.25262667894363,-4.13123035132885,1.9537874686718,8.57233593792291
9.68567954166792,-6.7811978405714,-3.70785510063171,2.58089023768902,8.14824079291042
9.69561154168332,-5.66401595413685,-2.61063970148563,2.28853647172451,6.64333617711034
9.7055425416911,-4.48083362102509,-1.88065634250641,1.58818621695042,5.11244302438958
9.7154745417065,-3.31381474614143,-1.5342409747839,0.909433822631836,3.76328758111801
9.72540554165607,-2.41783507436514,-1.3446029073,0.4005798439309,2.79541546760291
9.73533654166386,-1.95666868418455,-1.13125087201595,0.180766635350883,2.26736795680839
9.74526854167925,-1.67600233286619,-0.76525610268116,0.193086718730628,1.85253426511194
9.75519954168703,-1.58494130462408,-0.254614081978798,0.345971527509391,1.64212166653162
9.76513154170243,-1.29583888292313,0.181237372756004,0.635142105817795,1.45445896826333
9.77506254165201,-0.885963976085186,0.452416031956673,1.08167349994183,1.46956796146639
9.7849945416674,-0.572369614541531,0.520189939141274,1.55600197255611,1.73762673984741
9.79492554167518,-0.339655401706696,0.459330364465713,2.12660543560982,2.20199928573875
9.80485754169058,-0.00725478664040566,0.291574332118034,2.67133379995823,2.68720905287969
9.81478854169836,0.39736595839262,0.112310394644737,3.11671387732029,3.14394954201167
9.82471954170615,0.6853188174963,0.0191005146503449,3.66456640899181,3.72814614482662
9.83465154166333,0.993894806206226,0.0245214682817459,3.91307541310787,4.0373985902905
9.84458254167112,1.40813436716795,0.239492012858391,3.63473566889763,3.90531717059948
9.85451454168651,1.91586959078908,0.568555183410645,2.95096987187862,3.56399136786676
9.86444554169429,2.4954100844264,0.87749106824398,1.7527572709322,3.17320344685156
9.87437754165148,3.00372140496969,1.23682293534279,0.6748739361763,3.31775949728023
9.88430854165927,3.36028169184923,1.54264283895493,0.062548908367753,3.69799301555507
9.89424054167466,3.62395515739918,1.70598656237125,-0.198055719137192,4.01032008718934
9.90417154168244,3.91544207364321,1.54165407478809,-0.206486965566874,4.21307735335054
9.91410354169784,4.32539913386107,1.01578765869141,-0.131670014038682,4.44502409749967
9.92403454170562,4.85981651812792,0.194687138199806,-0.0108373391255736,4.86372666990742
9.9339655416552,5.4409780061245,-0.740234697461128,0.263898875713348,5.49743864786672
9.94389754167059,6.05565602660179,-1.700024741292,0.934893769025803,6.35885841899997
9.95382854167838,6.69374980688095,-2.59317582249641,1.77328275203705,7.394280157133
9.96376054169377,7.44758220434189,-3.25444562673569,2.31488344073296,8.45083323536731
9.97369154170156,8.31536338627338,-3.48623861074448,2.10878136813641,9.25991829096892
9.98362354165874,9.22801551640034,-3.1287585568428,1.27143260478973,9.82659357796306
9.99355454166653,10.018001832962,-2.31936182320118,0.270516096577048,10.2865435861936
10.0034865416819,10.3392993164063,-1.47146117448807,-0.463646779060364,10.4537685395267
10.0134175416897,10.2741777062416,-0.628111998438835,-0.771825449466705,10.3222558942539
10.0233495417051,9.88567583441734,0.0917393052577972,-0.641061826944351,9.90686444185432
10.0332805416547,9.40034933388233,0.604288687705994,-0.452698891013861,9.43062398269789
10.0432115416625,8.99529867231846,0.913577744364738,-0.405993232727051,9.05068246068952
10.0531435416779,8.61638272583485,1.04952316939831,-0.542170353680849,8.69698216932629
10.0630745416856,8.16881812870503,1.0275113260746,-0.936393872201443,8.28626590382953
10.073006541701,7.45735114753246,0.730220755934715,-1.60375325918198,7.66272360237132
10.0829375416506,6.1861074078083,-0.157992936372757,-5.41972805500031,8.22595519189364
10.092869541666,5.03415212988854,-1.55681941330433,-11.5526725780964,12.6976619126988
10.1028005416738,5.99256340026856,-1.72758500754833,-9.3655543076992,11.2520653017571
10.1127325416892,7.48042952299118,-1.07336636066437,-6.2937528938055,9.83464624076174
10.122663541697,7.52216460943222,-0.417240936756134,-3.88009887099266,8.47420896953682
10.1325945417047,7.09211359262466,-0.105833433866501,-1.95974329635501,7.35865950523762
10.1425265416619,6.78416062474251,0.704868398308754,-4.98733113527298,8.44956488193944
10.1524575416697,6.60663798809052,1.54267733752728,-7.17673566699028,9.87588242676326
10.1623895416851,6.30416327655315,0.977234627008438,-6.18317444443703,8.88420555502882
10.1723205416929,6.24823465883732,-0.942172967791557,-4.48965648472309,7.75146061100417
10.1822525417083,6.91627787768841,-2.75479169368744,-3.12694416582584,8.07474809348277
10.1921835416579,7.60918462693691,-4.58853056252003,-2.0512202078104,9.11930960933574
10.2021155416733,7.8493362057209,-7.07310780286789,-0.714732066392899,10.5901735013248
10.212046541681,7.37232152223587,-9.98642452955246,1.29175635695457,12.4799212336217
10.2219775416888,6.38109158456326,-12.5528949487209,4.40614742785692,14.7549190631537
10.2319095417042,4.72411872267723,-13.8621625471115,6.83173941850662,16.1601210289672
10.2418405416538,2.39760955542326,-13.734803173542,7.20573668718338,15.6944573337601
10.2517725416692,-0.0643866151571274,-13.1583331990242,6.43390305161476,14.6472177115769
10.261703541677,-1.97455970227718,-12.2594337201118,5.27097021102905,13.4898379575601
10.2716355416924,-3.2025036406517,-11.0289924359322,4.62694706171751,12.3815727123889
10.2815665417002,-3.9326776188612,-9.67658583462238,4.48146395087242,11.3659925132685
10.2914985416573,-5.00919153571129,-8.13798751473427,4.986004986763,10.7786402834234
10.3014295416651,-6.28597668170929,-6.61252964258194,5.7585742020607,10.7888937318734
10.3113605416729,-7.65856845617294,-5.24337076842785,6.38094481945038,11.2633505051544
10.3212925416883,-8.69533943295479,-3.81420308947563,6.36657060921192,11.4319855836222
10.3312235416961,-9.17462692916393,-2.57711235165596,5.60206528902054,11.0543395490118
10.3411555416533,-9.37574541985989,-1.56174686193466,4.7493599832058,10.625444728992
10.3510865416611,-9.30374280631542,-0.759338135719299,4.11059932798147,10.1996691831464
10.3610185416765,-9.19902502119541,-0.13675351023674,3.57386703103781,9.86981704079059
10.3709495416842,-9.43712188839912,0.291888912320137,3.15291895955801,9.95416328172176
10.3808815416996,-9.40193451404572,0.725900833010674,2.90407315582037,9.86696232485592
10.3908125417074,-9.13053658425808,1.27893048942089,2.81402047991753,9.63955770638056
10.400743541657,-8.78057780385018,1.86815499544144,2.77737744122744,9.39693434623751
10.4106755416724,-8.3106335735321,2.48525083959103,2.86996313095093,9.1367275598118
10.4206065416802,-7.98797076523304,3.14141134679317,3.19380327612162,9.15841261150336
10.4305385416956,-7.95497141897678,3.83138805627823,3.63947045177221,9.55022773989458
10.4404695417034,-7.96056661963463,4.39303183078766,3.79182696461678,9.85125886887303
10.4504015416605,-8.02084030330181,4.877935577631,4.2400359249115,10.3007785781041
10.4603325416683,-8.11486762404442,5.2758386027813,4.59024496614933,10.7124179515001
10.4702645416837,-7.97258264780045,5.36289428830147,4.55218222349882,10.632265620245
10.4801955416915,-7.77672372758389,5.12983362793923,3.78375868409872,10.055319724653
10.4901266249944,-7.44762547373772,4.60010337173939,2.99274179577827,9.25119341944342
10.5000586250098,-7.20399070858955,3.82877142727375,2.61024618387222,8.56564988265175
10.5099896250176,-6.88846501171589,3.08786137640476,2.17677688479424,7.85647476313014
10.519921625033,-6.35679874241352,2.19782276809216,1.36797013521194,6.86372038054627
10.5298526250408,-6.03956858217716,0.60930793762207,0.094893366470933,6.07096776244701
10.539784624998,-4.20756692111492,-2.99368202805519,-31.8656132411957,32.2813112918021
10.5497156250058,2.06718632251024,-3.66154398322105,-28.1454976987839,28.4578496085928
10.5596476250212,3.83660289555788,-4.02997645676136,-9.70875663042069,11.1901826316192
10.569578625029,3.9012318778038,-5.45407401502132,-2.84214558720589,7.28315351098666
10.5795096250367,3.06066743820906,-5.21368153095245,1.05662585534155,6.13731362011786
10.5894416249939,5.28010765492916,-4.68100603222847,1.90893698573113,7.30995176023023
10.5993726250017,12.2579882884026,-4.37505398154259,6.40909214615822,14.507785370551
10.6093046250171,17.6913567280769,-4.65525898754597,7.14937654495239,19.6410061886533
10.6192356250249,14.9245688867569,-4.8438147354126,1.4978555059433,15.7622609026509
10.6291676250403,13.8857595705986,-2.47791784644127,0.152518773078918,14.1059440549835
10.6390986249899,10.2873245859146,0.170646895766258,-0.751508713960648,10.3161491287281
10.6490306250053,7.39342880129814,2.81686047255993,-0.521754069328308,7.92904279661777
10.658961625013,5.78990241408348,4.9821621966362,0.444235229082406,7.65129107124794
10.6688926250208,4.62579545259476,6.30584084272385,0.88836279630661,7.87088309917459
10.6788246250362,3.59570433497429,6.9959672409296,0.626281235218048,7.89080955835961
10.6887556249858,2.85955976486206,7.1075952655077,0.441234474554658,7.67396119149823
10.6986876250012,2.76879372864962,6.69337558507919,0.907846815213561,7.3001151548888
10.708618625009,3.51382489711046,5.66110170185566,1.64861894488335,6.86388973627452
10.7185506250244,4.88910960674286,3.61313254594803,2.45125103473663,6.55490283502598
10.7284816250321,6.89761707365513,0.312433689236641,3.31411061525345,7.65885535018676
10.7384136249893,9.0007845300436,-5.58027797877789,4.09121025323868,11.3530447815954
10.7483446249971,10.6725356447697,-13.8979463374615,5.56659373998642,18.385942873671
10.7582756250049,10.4645419979095,-20.2168112683296,7.02710775732994,23.8244903517032
10.7682076250203,8.54541682362557,-19.5259101140499,6.20553419709206,22.198963244772
10.7781386250281,3.73323698669672,-13.7662097382545,1.5600570166111,14.3484970241323
10.7880706249853,-4.68516749560833,-8.8532978707552,-6.88012863636017,12.1518660173278
10.798001624993,-6.62675650298595,-4.07671909868717,-9.03443701028824,11.9228600785354
10.8079336250084,-4.73542080581188,0.0638837546110153,-5.44039562344551,7.21291867982888
10.8178646250162,-4.89253198206425,2.04293528795242,-3.8621578592062,6.55947536893851
10.827795625024,-7.80519557476044,2.64939563155174,-3.18777362734079,8.83754920053715
10.8377276250394,-11.0479701590538,2.33185673832893,-2.51305084168911,11.5676542572964
10.847658624989,-12.5240061950684,1.70937502384186,-2.5392691719532,12.8926561295133
10.8575906250044,-13.5478852307796,0.420789611935616,-2.59229377001524,13.8000813444686
10.8675216250122,-13.5717839705944,-1.45408266484737,-2.42302491679788,13.8628541898166
10.8774536250276,-12.7917782664299,-3.41460144817829,-2.36146879255772,13.4486292656774
10.8873846250353,-11.7157759809494,-4.98790182352066,-2.09539007484913,12.9046205291999
10.8973166249925,-10.6709440326691,-6.3527577316761,-1.47339426398277,12.505897328975
10.9072476250003,-9.46186204254627,-7.14087060034275,-0.510013993196189,11.8650318379798
10.9171786250081,-8.27348153471947,-6.86654321551323,0.823480337262154,10.7832292149296
10.9271106250235,-8.09556596517563,-5.53910247087479,2.30127930879593,10.0755015228252
10.9370416250313,-8.0775588798523,-3.51647690176964,3.2804212975502,9.40073035181741
10.9469736249885,-7.57560640633106,-1.619844211936,3.67965281009674,8.57633677612066
10.9569046249962,-6.8667186319828,-0.0206740003824234,3.91286198973656,7.90333734164478
10.9668366250116,-6.1854513502121,1.19209173560143,4.097746270895,7.51481307901692
10.9767676250194,-5.50806428074837,2.07470321059227,3.92268998980522,7.07323563081395
10.9866986250272,-4.8592127931118,2.73446969568729,3.50963799834251,6.58838617301561
10.9966306249844,-4.22315676748753,3.10894585132599,3.19119161725044,6.13875405332892
11.0065616249922,-3.60057798922062,3.04139764666557,2.77788234829903,5.47091325489577
11.0164936250076,-2.96622730404139,2.5412174642086,2.27947621107101,4.52242218467915
11.0264246250154,-2.17860443204641,1.62004184782505,1.68533712029457,3.195499032871
11.0363566250307,-1.23029276490212,0.565316410660744,1.15779898524284,1.78148854101344
11.0462876250385,-0.0218275098502636,-0.455830221176147,0.627854720950127,0.776182440759336
11.0562196249957,1.13888075754046,-1.37815189182758,0.334811568260193,1.81891473221939
11.0661506250035,2.1030626450479,-2.02514045655727,0.281898359656334,2.93317797669317
11.0760816250113,2.94414383232594,-2.38164870321751,0.299013726320118,3.79863694757584
11.0860136250267,3.55874905496836,-2.46090011000633,0.454250888228416,4.35052503235226
11.0959446250345,4.01026578515768,-2.29074438035488,0.71258906185627,4.67306373322802
11.1058766249917,4.40382199019194,-1.90018545806408,0.917878371477127,4.88332403196447
11.1158076249994,4.62324694365263,-1.43855889201164,1.45391368031502,5.05546525827112
11.1257396250148,4.80261408448219,-1.00617249727249,2.33878393471241,5.43575159770966
11.1356706250226,5.27474575817585,-0.780400975942612,2.73067543745041,5.99070587171005
11.1456016250304,6.08714152872562,-0.857828636169434,2.19163875281811,6.52628856109064
11.1555336249876,7.14462568223476,-1.25001893162727,0.894317600727081,7.30807959998011
11.1654646249954,8.2043224221468,-1.79869709014893,-0.524878821372986,8.41556387925235
11.1753966250108,9.00186918854713,-2.33854946136475,-1.54520216524601,9.42815529159573
11.1853276250185,9.55111218810082,-2.70091135561466,-2.05700602769852,10.1365645057171
11.1952596250339,9.91428509116173,-2.8607654607296,-2.275734577775,10.566740072445
11.2051906250417,10.182610309124,-2.73908841133118,-2.25256089270115,10.7824945447653
11.2151226249989,10.5916464328766,-2.29093909263611,-1.85755223929882,10.9946294347267
11.2250536250067,11.0272932350636,-1.49882731318474,-1.07131398797035,11.1801338573225
11.2349846250145,11.5705264663696,-0.424786183834076,-0.194904216080904,11.5799617298324
11.2449166250299,12.0221303200722,0.676227566599846,0.396698937267065,12.0476666289144
11.2548476250377,12.1672628903389,1.46951054334641,0.519633284211159,12.2666933698403
11.2647796249948,11.8800078964233,1.88725024759769,-0.126964101791382,12.0296475841681
11.2747106250026,10.992731512785,1.84496142983437,-1.67835554480553,11.2721296179795
11.284642625018,10.2778111660481,1.51410550296307,-4.21958411872387,11.2129749832073
11.2945736250258,9.9854328417778,0.734115586280823,-7.57392123878002,12.5543648848884
11.3045046250336,9.44209143698216,-0.311325057148933,-8.34230969488621,12.6033386466021
11.3144366249908,9.74735410094261,-0.785376371741295,-6.78196908831596,11.900539178093
11.3243676249986,9.85311502933502,-0.660945868492127,-4.8750517308712,11.013031126854
11.334299625014,9.05962506115437,-0.654249052405357,-2.20770865559578,9.34766417771103
11.3442306250217,7.86111015915871,-1.1065931636095,0.768773129805923,7.97575159400587
11.3541626250371,6.86803074717522,-1.56003596663475,-0.497733707427979,7.06054512094131
11.3640936249867,6.19520041286945,-2.23984904587269,-2.73874459505081,7.13429420901848
11.3740246249945,5.71916104495525,-3.30767400026321,-3.8235346609354,7.63340865233385
11.3839566250099,5.72263896882534,-4.4394727563858,-4.21484144210815,8.37988087649953
11.3938876250177,6.2463489317894,-5.98562860250473,-3.98939619541168,9.52679939689897
11.4038196250331,6.72122996628285,-8.29860000371933,-3.17816051244736,11.1419207735591
11.4137506250408,6.14985934853554,-11.1873151552677,-1.96236299514771,12.9161781853139
11.423682624998,4.24700463652611,-13.793878762722,0.468743358403444,14.4404937602353
11.4336136250058,1.85781974941492,-15.5967285454273,4.47135996222496,16.3310286097616
11.4435446250136,-1.06222332179546,-15.9416370856762,5.38941024184227,16.861490269595
11.453476625029,-3.48185933858156,-15.4770208382607,4.6037760078907,16.5183616624789
11.4634076250368,-5.16332004725933,-14.7776669490337,3.84517929911613,16.1190793226333
11.473339624994,-6.15778057157993,-13.5416556072235,2.8566045820713,15.1477684128946
11.4832701249979,-7.1681648182869,-11.8573066663742,2.61841825246811,14.1008660155122
11.4932021250133,-8.36724046826363,-9.82154474258423,3.0179584980011,13.2507180062059
11.5031331250211,-9.57920045793057,-7.52286978363991,3.74074247270823,12.7415778238781
11.5130641250289,-10.4680082273483,-5.41218865513802,4.29568738460541,12.5428829378614
11.5229961249861,-11.1794459724426,-3.67055922031403,4.30809634566307,12.5304713145241
11.5329271249939,-11.4858447504044,-2.25969508051872,3.89170091629028,12.3359712835742
11.5428591250093,-11.4196238636971,-1.02864685535431,3.38773173809052,11.9558625732573
11.5527901250171,-10.7634844064713,0.0639580142498016,2.86418403536081,11.1382331356617
11.5627221250325,-10.1027466988564,1.0541114795208,2.41206869646907,10.4400535089144
11.5726531250402,-9.13527516782284,1.96087195515633,2.20282023712993,9.59951499886678
11.5825841249898,-8.36178852438927,2.74111622571945,2.14159652709961,9.05647067981758
11.5925161250052,-7.87653511404991,3.36336346685886,2.09724875852466,8.81762278441278
11.602447125013,-7.54890217244625,3.97321051776409,2.23800644204021,8.81935364197674
11.6123791250284,-7.37095795154572,4.56495985150337,2.48955380558968,9.0204078466674
11.6223101250362,-7.35105812251568,5.03460996687412,2.89663666695356,9.36887704153982
11.6322421249934,-7.44367567956448,5.33862834334374,3.39957790464163,9.77069036151593
11.6421731250011,-7.70920885205269,5.47249800682068,3.94401537001133,10.2437977722185
11.6521041250089,-8.08189634442329,5.45141587078571,4.5339023655653,10.7513373204795
11.6620361250243,-7.98657152652741,5.08831138014793,5.22652903318405,10.8163229974145
11.6719671250321,-7.63223084270954,4.34238675713539,5.43106112837792,10.3249065547892
11.6818991249893,-7.25922701597214,3.3362160140276,4.937145652771,9.39159844533131
11.6918301249971,-7.21812459826469,2.50524656295776,3.98576039671898,8.61764869307974
11.7017621250125,-7.32361421585083,2.04859948575497,3.27850808858871,8.28134652834849
11.7116931250202,-6.70012327194214,1.49115108847618,2.41892411828041,7.27780030763987
11.721624125028,-5.79394693315029,0.841998469233513,1.25313549757004,5.98741438866756
11.7315561249852,-4.94737243294716,-0.0253131812810898,-0.152072082348168,4.94977379944395
11.741487124993,-3.08582479119301,-2.5305690997839,-17.9639656162262,18.4019062945033
11.7514191250084,2.5868818795681,-4.29004072844982,-26.0971502280235,26.573627101595
11.7613501250162,3.24880598723888,-4.62756891310215,-7.47441390752792,9.37208608844773
11.7712821250316,3.7644827529788,-5.42134597957134,-2.24579274058342,6.97179371907592
11.7812131250394,6.34708651721478,-5.85123619794846,1.42727961301804,8.74983424956889
11.7911441249889,12.0705920433998,-5.64717304944992,3.96929580688477,13.904857601974
11.8010761250043,16.321737678051,-4.5621227824688,4.71846154153347,17.5919289571201
11.8110071250121,14.7860635507107,-4.10457347989082,2.0145353615284,15.4768715023524
11.8209391250275,13.0847728872299,-2.90196552693844,-0.501561879515648,13.4120934141136
11.8308701250353,13.5635674631596,-0.465623722672463,-0.607972433567047,13.5851683191182
11.8408021249925,11.2112910783291,1.85776741683483,-0.105917049050331,11.3646630323716
11.8507331250003,8.05466469168663,3.58900225639343,0.710572357177734,8.8466645447132
11.860664125008,6.64553015828133,5.23888069152832,2.30963965773582,8.77173741816756
11.8705961250234,6.36027958989143,6.32963082432747,3.60818346261978,9.6714203059214
11.8805271250312,6.22827518820763,6.38421399772167,3.46231414318085,9.56750852703138
11.8904591249884,7.11598718941212,5.02514741778374,2.64628491282463,9.10451558789259
11.9003901249962,8.21826043009758,2.27177075028419,1.74853148818016,8.70391344188992
11.9103221250116,8.97209282755852,-1.42562952876091,0.717339924573898,9.11292740160865
11.9202531250194,9.91900613307953,-6.12732827246189,0.428162950873375,11.6667972442775
11.9301841250272,10.5991811549664,-10.2556724381447,0.712045270800591,14.7657870356437
11.9401161249843,9.28480133593082,-11.335920971632,0.499051669836044,14.661503766393
11.9500471249921,6.08441614151001,-8.44594457566738,0.453088461756706,10.419183687434
11.9599791250075,2.51550667226315,-4.41843915224075,1.57890434682369,5.32384422167602
11.9699101250153,-0.546588363647461,-1.13142453432083,2.80839838206768,3.07668356977741
11.9798421250307,-3.44272363185883,0.73598318696022,1.36340813755989,3.77530118088768
11.9897731250385,-4.807523406744,1.16101086080074,-0.917475571408868,5.03010824430457
11.9997041249881,-5.03984264016151,1.29552722632885,-2.44726966559887,5.7504376744653
12.0096361250035,-5.87750364482403,1.3457384365797,-2.88227210462093,6.68307964337428
12.0195671250112,-8.53595427453518,0.807301676273346,-2.63256032824516,8.96909277771835
12.0294991250266,-11.1099132227898,-0.670808951854706,-2.34271969556808,11.3740270810215
12.0394301250344,-11.8124094057083,-2.75283813893795,-2.86704186201096,12.4631883090075
12.0493621249916,-11.647349524498,-4.37886987447739,-3.06401760041714,12.8149700030509
12.0592931249994,-12.2365453791618,-6.11592971026898,-2.6676950776577,13.9375118319088
12.0692241250072,-12.7283196043968,-7.98685628592968,-2.22877924337983,15.191031900417
12.0791561250226,-13.3017934656143,-9.43784518897533,-0.944686539620161,16.3371681717201
12.0890871250303,-14.1471511602402,-10.425571475029,0.703281025439501,17.5877522933536
12.0990191249875,-13.735779658556,-9.31808778047562,1.3928582239151,16.6564839250358
12.1089501249953,-12.0754288601875,-6.22687945783138,1.70959531769156,13.6935286208517
12.1188811250031,-10.7799010491371,-3.48730163455009,1.24532712578774,11.398174370036
12.1288131250185,-9.65781510293484,-1.45212677121162,0.569626320227981,9.78297188316732
12.1387441250263,-8.04468700289726,0.245866647362709,-0.126391732469201,8.04943564810019
12.1486761250417,-6.38565533638001,1.61086464285851,-0.722616451978684,6.62522856279845
12.1586071249913,-4.98872978925705,2.49674529612064,-1.11040306314826,5.68807146109912
12.1685391250066,-4.06429084181786,2.75098281741142,-1.29898936271667,5.07678440285073
12.1784701250144,-3.26513462930918,2.51153465867043,-1.04957462489605,4.25094311682036
12.1884011250222,-2.363570574224,1.79805623531342,-0.451372340507805,3.00386568848584
12.1983331250376,-1.32306848913431,0.74709231197834,0.482722150683403,1.59426403845715
12.2082641249872,-0.214443710446358,-0.369279735088348,1.63289461255074,1.68780876979418
12.2181961250026,0.892331886291504,-1.39203902900219,2.5954188144207,3.07737350281159
12.2281271250104,1.94806172892451,-2.25160194933414,3.29158246278763,4.43837480923781
12.2380591250258,2.75763110160828,-3.04243552744389,4.04979091644287,5.76730003538165
12.2479901250335,3.37576073348522,-3.59943544328213,4.56767062067986,6.72423311159854
12.2579211250413,3.84519654840231,-3.80545156180859,4.94204795837402,7.3274030944111
12.2678531249985,4.09267731964588,-3.6482515078783,5.20679468035698,7.56111483518627
12.2777841250063,4.31141931831837,-2.92386101067066,4.86438991785049,7.12738304154999
12.2877161250217,4.64566370666027,-1.74217965781689,3.450571179986,6.04349424618253
12.2976471250295,4.9312820649147,-0.578637537360191,1.72243068695068,5.25539072522121
12.3075791249867,4.92285739660263,0.395219153165817,0.268600037097931,4.94599525942387
12.3175101249944,4.79723464608192,1.15505079388618,-0.862955474853516,5.0092209711297
12.3274411250022,4.8035443764925,1.5321798312664,-1.66272374466062,5.30907372931762
12.3373731250176,5.00548323154449,1.52582332313061,-2.22945635095239,5.68801149923982
12.3473041250254,5.51314434170723,1.02972800552845,-2.63641890585423,6.19724172071847
12.3572361250408,6.30164780437946,0.199249720573425,-2.95484569877386,6.9628714339094
12.3671671249904,7.30425291538239,-0.497959409952164,-3.11036204695702,7.9545223796896
12.3770981249982,8.74437886118889,-0.991492477655411,-3.21295056849718,9.3685788867288
12.3870301250136,10.8868349289894,-1.17269710600376,-3.62039186418056,11.5328067062497
12.3969611250213,11.7301332342625,-1.03068577945232,-4.24905817866325,12.5184996814786
12.4068931250367,11.2969586348534,-0.744263429045677,-4.40324399292469,12.1475824800917
12.4168241249863,10.7685586202145,-0.273440362215042,-4.10988070517778,11.5294294654799
12.4267561250017,10.255970646143,0.389297677874565,-3.46187618672848,10.8314852771345
12.4366871250095,9.66695254683495,1.0020923101902,-2.58969731390476,10.0578672052551
12.4466181250173,9.00984537541866,1.43039910256863,-1.45023709729314,9.23723675781602
12.4565501250327,8.34298037052155,1.56461784482002,-0.634189594388008,8.51208240707684
12.4664811250404,7.84439881682396,1.20196066617966,-0.646224333643913,7.96221753846413
12.4764131249976,7.58215938091278,0.441691653728485,-1.22055729702115,7.69246335771895
12.486344416684,7.55062359273434,-0.474503889083862,-1.63475183442235,7.74012171351713
12.4962754166918,7.6664095723629,-1.40845274806023,-1.68948455035687,7.97570892903135
12.5062074167072,7.72627453565598,-2.21298752188683,-1.43037980675697,8.1632480278337
12.5161384166568,7.40571614027023,-2.6629588329792,-2.05653313413262,8.13420615845126
12.5260704166722,6.25818369626999,-2.34204901993275,-4.85195873737335,8.25781813660249
12.5360014166799,4.90429804176092,-1.50583110809326,-6.14347769737244,8.00387311410132
12.5459334166953,4.18608717441559,-0.641571704149246,-5.59876336634159,7.02004923883446
12.5558644167031,3.76432750940323,-0.497590450644493,-5.0300356900692,6.30230250765484
12.5657954166527,3.70268411546946,-1.71439193487167,-4.27060516834259,5.90652841093458
12.5757274166681,3.9601206484437,-3.62278279066086,-3.23571407139301,6.26713301680676
12.5856584166759,4.25821404129267,-5.08279102385044,-2.49353459000587,7.08412776318669
12.5955904166913,4.13143792748451,-6.38074192106724,-2.03877382457256,7.87014901508762
12.605521416699,3.57978529036045,-8.01930131614208,-1.4219703412056,8.89640691377297
12.6154524167068,2.61487162381411,-9.54158298075199,-0.333257378339767,9.89901105504091
12.625384416664,1.32337342143059,-10.7039328539372,1.48245043158531,10.886834022628
12.6353154166718,-0.229057656526566,-11.4230830764771,3.48617663025856,11.9454058901098
12.6452474166872,-2.06924541950226,-11.6824749183655,4.42166447639465,12.66148149176
12.655178416695,-4.05413539767265,-11.6093648421764,4.51091520667076,13.098157193407
12.6651104166522,-5.90044694960117,-11.1256445717812,4.0429713088274,13.2265210220474
12.67504141666,-7.07997652709484,-9.8402628493309,3.52111257433891,12.6235919741294
12.6849724166677,-7.57785349130631,-8.08495034515858,3.39304100990295,11.5889176765678
12.6949044166831,-7.84972621500492,-6.02569723248482,3.42100736528635,10.4704594064183
12.7048354166909,-8.36925892710686,-4.0441641408205,3.63051748752594,9.97899873805423
12.7147674167063,-9.03610931396485,-2.4594435685873,3.81002233028412,10.1102128740324
12.7246984166559,-9.46472483932972,-1.26955097079277,3.6577105486393,10.2260267166331
12.7346304166713,-9.62602496087551,-0.368150053024292,3.23589007258415,10.1620310750749
12.7445614166791,-9.43505489766598,0.446399247050285,2.53445925235748,9.77972478710921
12.7544924166868,-9.09603801190853,1.06634210050106,1.75009737253189,9.32404599960387
12.7644244167022,-8.72733481228352,1.57185202002525,1.15075659871101,8.94211006687069
12.7743554166518,-8.39053109765053,1.98953968405724,0.788532114028931,8.65916064927393
12.7842874166672,-8.12338760197163,2.3706150072813,0.609710152968764,8.48416101422214
12.794218416675,-7.94590238749981,2.65765131533146,0.507075219154358,8.39390258124543
12.8041494166828,-7.86093942046166,2.85413062512875,0.662339771613479,8.38922667297331
12.8140814166982,-7.80956812262535,2.93314521968365,0.961105667352676,8.39740550679176
12.824012416706,-7.70385455667973,2.82705275416374,1.3232975538075,8.31220300048144
12.8339444166631,-7.52443099021912,2.54073740780354,1.87919936254621,8.16111503081387
12.8438754166709,-7.32791542768478,2.08364243388176,2.33559427857399,7.96836940293815
12.8538064166787,-6.69476488351822,1.70144210636616,2.30280309319496,7.28132434196779
12.8637384166941,-6.11238278925419,1.51784830570221,1.90146190524101,6.5788026432305
12.8736694167019,-5.98911412775517,1.52755526840687,1.49136158823967,6.358228725061
12.8836014166591,-5.99484264492989,1.65058360934258,0.952557038068771,6.29046337718253
12.8935324166669,-5.60387909531593,1.7755935716629,0.335342495441437,5.88800883456355
12.9034644166823,-5.45944175899029,1.66943971037865,0.073398928642273,5.70945887708476
12.91339541669,-5.5635689753294,1.17679015696049,-0.09537393450737,5.68746261562661
12.9233264166978,-5.26784078121185,0.286722897291183,-1.86711477577686,5.59629110232429
12.933258416655,-3.94840312063694,-1.87891445696354,-19.5209341335297,20.0046763579231
12.9431894166628,-0.305839784145355,-2.87374394059181,-17.9912510633469,18.2218840143942
12.9531214166782,1.30689772188663,-2.65590358257294,-7.04721633195877,7.64362894997021
12.963052416686,1.23936822831631,-3.04381196200848,-1.31683038711548,3.5404614295112
12.9729834166938,1.66134482502937,-3.31990052819252,1.68917991042137,4.07861924117906
12.9829154166509,4.16992780923843,-3.98138960301876,2.17222424268723,6.16103232143803
12.9928464166587,8.77336584806442,-5.13314958393574,3.7523722922802,10.8351959269279
13.0027784166741,13.145220233202,-6.21655152082443,4.46966543912888,15.2125026517069
13.0127094166819,15.6969907522202,-6.45026765406132,3.37316106140614,17.3025919165454
13.0226404166897,17.7447909235954,-4.92811111986637,2.06378528952599,18.5316781175675
13.0325724167051,16.6164420247078,-2.42443687319756,0.249692480564117,16.7942366914202
13.0425034166547,16.3644738078117,1.40373521447182,0.141962758116424,16.4251827686512
13.0524354166701,14.5406570792198,4.86137100040913,0.221257434301078,15.333381595438
13.0623664166778,11.1552034163475,7.30157839894295,0.321356540322304,13.3362243683139
13.0722984166932,7.82553628385067,8.30563420414925,-0.150911446586251,11.4125085729522
13.082229416701,5.31294620275498,8.25496106386185,-0.600554509609938,9.83526538728145
13.0921604166506,3.46618499994278,7.66721648812294,-1.05926865063608,8.4807250399829
13.102092416666,2.27861959397793,6.69973852515221,-1.52802889287472,7.23971517788709
13.1120234166738,2.0175805914402,5.34447848260403,-1.85263940870762,6.00552699375085
13.1219554166892,2.73610691606998,3.09969672560692,-2.49046655595303,4.8266784141089
13.1318864166969,4.24439648598433,-0.256971679329872,-3.75714420497417,5.6742460777785
13.1418174167047,5.80744990825653,-4.53266334056854,-3.90060622572899,8.33584070889305
13.1517494166619,6.85987622022629,-9.2931032127142,-2.68387607753277,11.8584509898442
13.1616804166697,7.23717833518982,-13.4593630635738,0.132616586890072,15.2823032129177
13.1716124166851,7.28783861160278,-15.285646147728,9.16977958738804,19.2574252553034
13.1815434166929,3.58784041464329,-11.8342265367508,9.82264752745629,15.7925906998417
13.1914744167007,-0.417153228521347,-7.63626366734505,2.37301470458508,8.00735526884232
13.2014064166578,-3.23900137603283,-4.61441560149193,-1.33886795818806,5.79452574993824
13.2113374166656,-5.64546156942844,-1.94112941622734,-2.40371726453304,6.43561002782571
13.221269416681,-6.82559107124806,0.121190561056137,-3.25638807177544,7.56356026603819
13.2312004166888,-8.79931169807911,1.42060793995857,-4.27785454630852,9.88666034606215
13.2411324167042,-11.9597545623779,1.55703049778938,-7.22700651884079,14.0602167972878
13.2510634166538,-13.2663301026821,1.31856174767017,-9.40754023969173,16.316737812356
13.2609944166616,-12.428390185833,0.825503473877907,-6.32512379050255,13.9697362023009
13.270926416677,-12.0721895027161,-0.323382600545883,-4.50715807825327,12.8901826844381
13.2808574166847,-11.8149868583679,-2.01091359615326,-3.85023772537708,12.5881697834323
13.2907894167001,-12.3374589657784,-4.15914145052433,-2.03288684785366,13.177404155368
13.3007204167079,-13.1123015785217,-6.1157694965601,0.585879167765379,14.4802742936859
13.3106514166575,-12.8796572399139,-6.72745140373707,1.76817798659205,14.637985735735
13.3205834166729,-10.8858268690109,-5.70016285657883,1.83743313968182,12.4245419938283
13.3305144166807,-8.10338193833828,-3.85989907979965,1.3502543874085,9.07671783496332
13.3404464166961,-5.98557422339916,-2.70808355033398,0.730154609307647,6.6101392612337
13.3503774167039,-4.71584403544664,-2.03518714249134,0.224257604107261,5.14115387287909
13.3603084166534,-3.94865805923939,-1.34047711193562,-0.157488175481558,4.17295840883131
13.3702404166688,-3.46751290261745,-0.754927580952644,-0.315389456748962,3.56272815293701
13.3801714166766,-3.066570494771,-0.325340833067894,-0.350384457707405,3.10362216212997
13.390103416692,-2.71653394639492,-0.0429630017280579,-0.304653968811035,2.73390134096784
13.4000344166998,-2.30803635120392,0.177416217327118,-0.127545315027237,2.31835634017611
13.4099654167076,-1.7621455603838,0.271026631593704,0.200651882886887,1.79412195491817
13.4198974166648,-1.21551772803068,0.212059800624847,0.657848598361015,1.39829091556924
13.4298284166725,-0.73804052978754,-0.0719102275371552,1.21036194562912,1.41945445290105
13.4397604166879,-0.279246939718723,-0.449497101902962,1.78442345201969,1.86123441674586
13.4496914166957,0.169694676697254,-0.844118669629097,2.33999255418777,2.49337076371927
13.4596234166529,0.558545334935188,-1.22370880007744,2.74320485115051,3.05525923187224
13.4695544166607,0.938305619359016,-1.47581033349037,2.89850572943687,3.38522806312013
13.4794854166685,1.41036814972758,-1.51227240085602,2.80036196887493,3.48111092740204
13.4894175000372,1.85353520214558,-1.31351910889149,2.49045603096485,3.37094889269848
13.4993484999868,2.30315860390663,-0.912784861922264,2.02670867979527,3.20082236802686
13.5092805000022,2.72543984055519,-0.368400898575783,1.3948199647665,3.08370950004506
13.51921150001,3.08469861745834,0.249287268519402,0.745226977095008,3.18321738971523
13.5291425000178,3.38548406839371,0.837784965634346,0.21812226690352,3.49441888578197
13.5390745000332,3.67953118801117,1.30124463379383,-0.192039445862174,3.90756529175025
13.549005500041,4.02751156300306,1.4065974265337,-0.504496012330055,4.29579817227387
13.5589374999981,4.47347694665194,1.07265767812729,-0.591221257075667,4.63811740488422
13.5688685000059,5.1551807230711,0.444843887686729,-0.646979063004255,5.21462906445914
13.5787995000137,5.98269446969032,-0.395903862118721,-0.718894187584519,6.03872352725694
13.5887315000291,6.87961174249649,-1.22755042076111,-0.800175674557686,7.03393338560725
13.5986625000369,7.78146172642708,-1.9339256465435,-0.779407607093453,8.05597239470217
13.6085944999941,8.61160788953304,-2.45643049836159,-0.613435048609972,8.97608733219613
13.6185255000019,9.37706279754639,-2.64840277433395,-0.337230561375618,9.74972145323926
13.6284565000096,10.049286775589,-2.43030981659889,-0.174628849625587,10.3404577141346
13.638388500025,10.5165447950363,-1.78741547226906,-0.303957711607218,10.6716895938252
13.6483195000328,10.6489351129532,-0.959565510749817,-0.656880737990141,10.7122396030546
13.65825149999,10.4301030671597,-0.100952178239822,-0.940562352240086,10.4729126260232
13.6681824999978,9.88593077301979,0.644005315303803,-1.13986206650734,9.97224426223815
13.6781135000056,9.23932929396629,1.22559862017632,-1.34111884385347,9.41625708726459
13.688045500021,8.60373753726482,1.65192320644856,-1.59976224213839,8.9057503401743
13.6979765000287,8.11683579683304,1.79860645830631,-2.13013013720512,8.58227609355705
13.7079084999859,8.01732612669468,1.29635460734367,-3.74997025609016,8.94540834234655
13.7178394999937,9.13373091816902,-0.131536039710045,-7.76052518606186,11.9861625793562
13.7277705000015,9.0374038875103,-1.34938008248806,-9.38456594467163,13.0983042262307
13.7377025000169,8.85134548544884,-1.4222849214077,-7.63801666259766,11.7774576984406
