Time (s),Linear Acceleration x (m/s^2),Linear Acceleration y (m/s^2),Linear Acceleration z (m/s^2),Absolute acceleration (m/s^2)
0.00101804166661168,0.114208400845528,0.118606091737747,-0.88070294380188,0.895962409391316
0.0109510416677949,0.4095003926754,-0.0400814938545227,-1.37287770330906,1.43320978436308
0.0208830416668206,0.670402570366859,-0.131958793401718,-1.69661289095879,1.82902925927336
0.0308150416676654,0.881477699875832,-0.159714356660843,-1.60484434962273,1.83794368728151
0.0407470416666911,0.959083992540836,-0.0472455024719238,-0.820092460513115,1.26278497221116
0.0506790416675358,0.529886084496975,0.162169017791748,0.698255197405815,0.891424911913118
0.0606110416665615,-0.277737480998039,0.00588054478168488,1.70150350213051,1.72403215077923
0.0705430416674062,-0.856983713507652,-0.654307524561882,1.79704583644867,2.0956891850208
0.0804750416664319,-1.04796254754066,-1.34235114455223,1.2018185788393,2.0843464186099
0.0904070416672766,-0.803060690760612,-1.38510130763054,0.610207824110985,1.71340762635486
0.100339041666302,-0.0751832064986229,-1.64941796690226,0.386489260196686,1.69576121323928
0.110272041667486,0.738005738854408,-1.90063364714384,0.232740817666054,2.05212792472721
0.120204041666511,1.08066660940647,-1.98422748863697,0.805966756939888,2.3988708720231
0.130136041667356,1.0264143884182,-2.00118792235851,0.600756384730339,2.32791491063135
0.140068041666382,0.417653750181198,-1.95800594240427,-0.525955293774605,2.06998813923664
0.150000041667226,-0.638428241014481,-1.88216375470161,-0.762726012468338,2.12882173714315
0.159932041666252,-1.42302751779556,-1.43418137401342,-0.341241166591644,2.04898244593439
0.169864041667097,-1.29609586805105,-0.983818591833115,0.356889485120773,1.66587323209339
0.179796041667942,-1.0483136728406,-0.676784221529961,1.27997070908546,1.78754677009951
0.189728041666967,-0.715218262374401,-0.277224095463753,1.91598288059235,2.0638267273835
0.199660041667812,-0.260653086304665,-0.0636200451850891,1.88292973995209,1.90194951224935
0.209592041666838,-0.101611744165421,-0.307569390535355,0.794512646198273,0.858005956573502
0.219525041668021,-0.258522360920906,-0.974468016922474,-0.713833349347115,1.23530554023734
0.229457041667047,-0.601703633666039,-1.80349209934473,-1.81292979776859,2.62704120005817
0.239389041667891,-0.826250455677509,-2.12909868836403,-2.63558509290218,3.48741448959382
0.249321041666917,-1.04789910525084,-2.21655198454857,-3.14628207743168,3.988770004119
0.259253041667762,-1.17346133708954,-2.18099024221301,-3.20654757499695,4.05162650018374
0.269185041666788,-0.949857378602028,-1.98208141431212,-2.96989730894566,3.69474840798787
0.279117041667632,-0.315078092515469,-1.57117710515857,-2.98790380954742,3.39049271865693
0.289049041666658,2.15548366427422,-0.18120901376009,-0.145338976979256,2.16796447199909
0.298981041667503,7.82792604088783,1.58864463865757,9.88122961163521,12.7058615027633
0.308913041666528,6.88747975587845,1.63723923996091,6.9972846186161,9.95388977990136
0.318845041667373,3.8630966296792,0.645974511355162,1.23992956101894,4.10831156995766
0.328777041666399,2.45998560547829,0.163783580213785,-1.4507626157999,2.86060595114227
0.338710041667582,2.04434797525406,0.00202145554125309,-2.75491097688675,3.43058263576014
0.348642041666608,2.49630646258593,-0.212056073024869,-2.71258181333542,3.6925077965108
0.358574041667453,2.85602892369032,-0.902858920991421,-0.946701051592827,3.14138477828751
0.368506041666478,1.07204547464848,-0.227492941617966,3.44368666827679,3.61386391656736
0.378438041667323,-1.99218335643411,-0.0333854178059846,-0.087842720746994,1.99439851969544
0.388370041666349,-1.54955614820123,-0.12423716140911,0.871010599136353,1.78191430560257
0.398302041667193,-2.06206840083003,0.38072364974767,1.59307975172997,2.63343495886094
0.408234041668038,-2.15614030659199,0.38652284514159,1.42608093380928,2.6138186167562
0.418166041667064,0.752370008826256,-0.176183843538165,1.8865351331234,2.0386554847286
0.428098041667909,4.72845180183649,-0.73769495934248,1.66981977939606,5.06860418567009
0.438030041666934,8.16119920670986,-1.31361266434193,0.816816265583038,8.30649983658834
0.447962041667779,7.15313864350319,-2.84175031542778,1.24279118835926,7.79663178855305
0.457895041667143,2.58697251141071,-4.45934744238854,1.60645174920559,5.39989755544098
0.467827041667988,-1.00227620512247,-5.10200438976288,0.69863468170166,5.24624597240644
0.477759041667014,-1.72780003890395,-5.4765103662014,-0.98566806614399,5.82657706566762
0.487691041667858,-0.542507884204388,-6.16542814493179,-2.84682160556316,6.81257750551451
0.497623041666884,0.737670839577913,-6.70322872817516,-4.85933383047581,8.31207308231846
0.507555041667729,1.71521434575319,-6.4883090543747,-6.33496465444565,9.22886189137284
0.517487041666755,2.73417119532824,-5.12249771118164,-6.79984519600868,8.94167599592527
0.527419041667599,4.10751521408558,-3.92472891390324,-7.13056371331215,9.11702348089422
0.537351041666625,5.32480318665504,-3.73794633418322,-8.46713839352131,10.6779307147447
0.54728304166747,5.4123453605175,-4.08884973227978,-9.94067825317383,12.0345028384143
0.557215041666495,3.899862459898,-4.07912435084581,-9.24046716213226,10.8274842900015
0.56714704166734,1.952525639534,-3.74747407972813,-6.27390218138695,7.56424265428362
0.577080041666704,0.723143870830536,-3.07735597640276,-3.16472536504269,4.47309104530258
0.587012041667549,0.197981459498405,-1.9093563772738,-1.20134553909302,2.26452413059343
0.596944041666575,0.306802235841751,-1.16439859136939,-0.211154651641846,1.22251297678614
0.60687604166742,0.239499029517174,-1.00053453885019,0.099656435251236,1.03361528319719
0.616808041666445,-0.482405231595039,-1.08497089102864,0.192343281805515,1.20286016639735
0.62674004166729,-1.49501142024994,-1.16826433181763,0.218427418470383,1.90987204618913
0.636672041666316,-2.07776890575886,-1.28941659361124,0.179650438427925,2.45193659331674
0.64660404166716,-2.81964257776737,-1.47939175307751,0.163722038269043,3.18838346678177
0.656536041668005,-3.3103847694397,-1.58969465240836,-0.0715798598527908,3.67299606397429
0.666468041667031,-4.44561876475811,-2.02646499708295,-0.515705709457397,4.91284428460121
0.676400041667876,-4.71824110150337,-2.84135153532028,-0.821560696363449,5.56866587406642
0.686332041666901,-4.48130607604981,-3.28205091655254,-1.20908754497767,5.68470360331165
0.696265041666265,-4.51388149917126,-3.34422991544008,-1.56550603687763,5.83179295477688
0.70619704166711,-4.61508042991161,-3.3720427814126,-1.67043607592583,5.95482968505267
0.716129041667955,-4.40910933494568,-3.29483380705118,-1.7559489735961,5.77750220609787
0.726061041666981,-4.23936758816242,-2.84986917436123,-1.83144822210073,5.42661906243403
0.735993041667825,-4.92409934520722,-2.52246544361114,-1.88249777689576,5.84408967724658
0.745925041666851,-5.52945047199726,-2.36404273688793,-1.99232880592346,6.33505285337192
0.755857041667696,-5.22622263908386,-2.16008454591036,-2.10781657755375,6.03508566992747
0.765789041666721,-4.6004699921608,-1.17068303257227,-1.61028606086969,5.01276810847618
0.775721041667566,-4.26502283155918,-0.172147876024246,-0.968667725175619,4.37702773657395
0.785653041666592,-3.67134157776833,0.580178863406181,0.342080242037773,3.73260972861969
0.795585041667437,-3.25472453892231,1.82608515590429,1.69308570429683,4.09809199786575
0.805517041666462,-4.38210046112537,2.80584548771381,1.56647506669164,5.43409766998034
0.815449041667307,-4.94582818329334,2.94072525769472,0.697265702337027,5.7961418995361
0.825382041666671,-4.94988439679146,2.64406911045313,-0.715112720131874,5.65719393382853
0.835314041667516,-4.34772643446922,2.27223706573248,-1.91229153335094,5.26522984687247
0.845246041666542,-2.40525391280651,2.04177900105715,-1.73438590407372,3.60030586735052
0.855178041667386,-0.315683571696281,1.78996661245823,-0.785407361984253,1.980025584535
0.865110041666412,1.49689597785473,1.11893108099699,-0.394770087003708,1.91011720952712
0.875042041667257,1.75116741299629,0.297348457574844,-0.0545410734415054,1.77707010054596
0.884974041666283,1.54858594894409,-0.154672594964504,0.652537572383881,1.68755661720512
0.894906041667127,1.40093498289585,-0.348894587159157,1.09088929653168,1.80952637906656
0.904838041667972,1.54500745296478,-0.373688243329525,0.731570439487696,1.74982463145644
0.914770041666998,1.59224769294262,-0.580392579138279,-0.217752065062523,1.70866152980597
0.924702041667842,1.21169686496258,-1.0374767357111,-0.991141059994698,1.87801168007798
0.934634041666868,0.932879403233528,-1.37203716605902,-0.771746000424028,1.82984749506484
0.944566041667713,0.867488236427307,-1.46704623430967,-0.207964556962252,1.71697692206228
0.954498041666739,-0.303911372423172,-1.85075572818518,0.0754868962615729,1.87706077664139
0.964431041667922,-1.78042863428593,-2.13722310215235,0.618791536688805,2.84965816827855
0.974363041666948,-3.22648716509342,-1.82850034832954,0.924583446756005,3.82210511372582
0.984295041667792,-4.44406574428082,-1.36949772030115,0.172605091743171,4.65349727227769
0.994227041666818,-4.19097252309322,-1.216602678895,-0.916032405495644,4.45909050542092
1.00415904166766,-3.35037621617317,-1.44531418025494,-2.02482236802578,4.17299167164307
1.01409104166669,-3.0330957698822,-1.49973713994026,-3.03021718561649,4.54214680852557
1.02402304166753,-3.34404835939407,-1.11775812953711,-3.45407833993435,4.93585857217527
1.03395504166656,-3.87149176955223,-0.614703748226166,-3.32175058722496,5.13812574617665
1.0438870416674,-3.84484834671021,-0.202990769147873,-3.41339867591858,5.14542073909628
1.05381904166643,-3.92071246147156,0.58071476072073,-3.41234968543053,5.23004265895749
1.06375104166727,-2.57729303061962,1.48142570704222,-2.80247339844704,4.08545207292526
1.0736830416663,1.22596641004086,0.525415011048317,-1.5612919485569,2.05345735797264
1.08361504166714,4.17631823122501,-2.08392894744873,0.570190064907074,4.70207513089656
1.09354704166799,6.51581143319607,-3.85401414960623,2.57142534971237,7.99508924449734
1.10348004166735,7.48925940334797,-4.26404049932957,4.13555202841759,9.55896638608524
1.11341204166638,7.06551402390003,-3.3129689463973,4.28653766155243,8.90346319055839
1.12334404166722,6.27162586033344,-1.61060590356588,3.30034977793694,7.26771291159281
1.13327604166625,5.40987491190434,-0.0454594704508781,2.41455858707428,5.924432993656
1.14320804166709,4.24554224789143,1.04520821660757,1.74512504652143,4.70771182451638
1.15314004166794,3.41473651885986,1.7801868519187,1.58323537945747,4.16366725228437
1.16307204166696,3.30707232177258,1.96071144908667,1.87329235911369,4.27672082216358
1.17300404166781,3.53479447424412,1.688654538095,2.20697322204709,4.49633816866664
1.18293604166684,4.18618131458759,1.22571644157171,1.94619544386864,4.77641827099309
1.19286804166768,4.14638107180595,0.548464442789555,1.20012083977461,4.3512732926922
1.20280004166671,3.03452073633671,0.236323991417885,0.507524285316467,3.0857326566576
1.21273204166755,2.12753397345543,1.00020424425602,0.403993484973907,2.38537629617135
1.22266404166658,1.5386035823822,1.43978768438101,-0.00820042759180069,2.10721541538288
1.23259604166742,1.32132748067379,1.36824086129665,0.0792826893925667,1.90375290165055
1.24252804166645,0.903880137205124,0.938216449320316,0.34423976495862,1.34749783821272
1.25246004166729,-0.44363585293293,0.327675626277924,0.0630553503334522,0.555121665285937
1.26239304166666,-2.08431252479553,0.0175042247772217,-0.746344306915999,2.2139771731819
1.2723250416675,-3.30918024301529,0.243179267048836,-1.32977816909552,3.57464963537522
1.28225704166653,-4.09730831444263,0.808742430210114,-1.62549291461706,4.48154292152749
1.29218904166737,-4.4426308375597,0.871837980151176,-1.73805590897799,4.84952663310593
1.3021210416664,-5.1740245449543,0.79869165122509,-1.64642536193132,5.48809209269824
1.31205304166724,-6.17295000314713,0.947345414757729,-1.37245173364878,6.39424732376002
1.32198504166627,-6.64415781676769,0.869398521780968,-1.27133671045303,6.82033605587992
1.33191704166711,-6.77890982508659,1.22270658731461,-0.489002937376499,6.90563202669248
1.34184904166796,-5.47578297257423,2.29542215287685,1.44249055981636,6.1101506559013
1.35178104166698,-3.75379258096218,3.38582028329372,2.07817294836044,5.46566926688279
1.36171304166783,-2.26707075834274,4.64347567856312,1.98401640415192,5.53514203003716
1.37164504166685,-0.26923855304718,6.30326923727989,2.03131350830197,6.62796552835756
1.3815770416677,1.77817862570286,6.45006241679192,2.71955637216568,7.2222718909499
1.39150904166672,3.46118270695209,5.08197943031788,3.29705077886581,6.97687928084598
1.40144104166757,4.92507173717022,4.0729061293602,2.91035598903894,7.02246879222597
1.41137304166659,5.39654969215393,1.91479180276394,2.16269708186388,6.12098316414293
1.42130604166778,5.26544400751591,-0.409838946461678,0.561823137849569,5.3111687787666
1.4312380416668,4.04561775863171,-2.50858707726002,-0.692333575934172,4.81033865268528
1.44117004166765,2.7620977896452,-4.27849481642246,-1.77318188756704,5.39248329622935
1.45110204166667,2.22002873897552,-5.09076370239258,-1.18564137965441,5.67892139024867
1.46103404166752,2.50247849106789,-4.97626644909382,0.125544105470181,5.57147984767535
1.4709661249999,3.14696970999241,-4.888393907547,1.22764865398407,5.94196386463105
1.48089812500075,3.75018777251244,-4.59250257611275,1.21420561283827,6.05221310852088
1.49083012499978,3.54716367423534,-4.38773542284966,0.0139824467897415,5.64223251750251
1.50076212500062,1.70894934654236,-3.71791698932648,-2.7184068095684,4.91255027362346
1.51069412499965,0.0490253949165344,-2.76999270021915,-3.82415417343378,4.72222597837134
1.52062612500049,-0.729645389914513,-1.98124014616013,-5.97610582709313,6.33810190580717
1.53055812500133,-0.750856749415398,-0.950054429769516,-4.6454748415947,4.80071096625871
1.54049012500036,-1.27646764218807,-0.0220773321390152,-1.55946527838707,2.01538805311593
1.55042212500121,0.880039284825325,-0.200809172987938,-2.19871666118503,2.37679372747502
1.56035412500023,1.38629764795303,-0.218020452260971,0.00508678525686264,1.4033459878834
1.57028612500108,0.941558425426483,-0.515613908171654,0.864018644839525,1.3780124053948
1.5802181250001,0.310029021799564,-0.933301572203636,0.544443312585354,1.12409445317317
1.59015012500095,-0.289290117323399,-1.38623332858086,0.186695748567581,1.42835111782172
1.60008312500031,-0.535013800263405,-1.44565682709217,0.109829128682613,1.54538858080991
1.61001512500116,-0.261422579884529,-1.16126989245415,-0.0765634417533875,1.19279146920452
1.61994712500018,0.190130987763405,-0.349627243280411,-0.127515932768583,0.417910654161376
1.62987912500103,-0.0296515229344368,0.737890548706055,0.839113014489412,1.11779798074946
1.63981112500005,-0.96449412882328,1.7845310407877,1.69788188293576,2.64529825321662
1.6497431250009,-1.617303596735,1.9210933470726,1.64902912706137,3.00425825023006
1.65967512499992,-1.93786930114031,1.3749061024189,1.19363320782781,2.65903449650433
1.66960712500077,-1.59531104922295,2.04055605590343,0.356873112916946,2.61462134539211
1.67953912499979,-0.322416640520096,2.70724915266037,-0.447666338682175,2.76288899803334
1.68947112500064,0.591532109677792,4.12305360496044,-1.24595687091351,4.34763036496132
1.69940312499966,0.333252992928028,6.66038851797581,-1.66160794973373,6.87261040262707
1.70933512500051,-0.597746822834015,7.39426436841488,-1.57417321845889,7.58356566108129
1.71926712500135,-1.18327735036612,5.23766914844513,-0.949231141805649,5.45292244186886
1.72919912500038,-0.855825380086899,3.26162776172161,-0.287111152410507,3.38424076434767
1.73913112500122,-0.25993153989315,3.69722895562649,0.458233719170094,3.73457420560077
1.74906312500025,1.23635048031807,3.92739056646824,1.51314246654511,4.38663416480434
1.75899512500109,1.93996655121446,-0.461002668142319,1.31852871090174,2.39050447423498
1.76892712500012,2.15802998051047,-3.73673040568829,0.0347643283009529,4.31525851833927
1.77885912500096,2.06280266493559,-2.82570204734802,-1.31287416100502,3.7367613594511
1.78879212500033,1.21334811866283,-1.82178072810173,-0.987817210257053,2.40143322189594
1.79872412500117,-0.850090577155352,-1.72063617646694,0.753914258480072,2.06194799892593
1.8086561250002,-2.20173353210092,-1.22467417538166,3.64291007637978,4.42924950830427
1.81858812500104,-2.05811656013131,-0.721228907704353,3.76913742899895,4.35458515487709
1.82852012500007,-1.31531829714775,-0.816285338401795,2.81179035186768,3.20975839579205
1.83845212500091,-0.206645205840468,-1.46525201618671,2.87511774390936,3.23356888799025
1.84838412499994,0.666164873912931,-1.69202341139317,3.65276000350714,4.08036450665372
1.85831612500078,1.62773386001587,-1.52825401067734,4.56940929025412,5.08572306580433
1.86824812499981,2.19551881894469,-2.15025508403778,5.16930935025215,6.01378906924536
1.87818012500065,2.77939414590597,-0.879404861927032,5.08672912359238,5.86286601469624
1.88811212499968,2.31738371014595,2.95179842233658,4.11672165513039,5.57052765651316
1.89804412500052,0.924310893416405,6.52121367573738,1.56437913224101,6.76962779639351
1.90797612500137,0.681682214811444,1.35819125175476,-1.33927331641316,2.02559303276589
1.91790812500039,1.68855484306812,-0.821101689934731,-0.429207994490862,1.92604385874189
1.92784012500124,1.9474411931634,-1.77705128252506,0.229344170093536,2.64632522753904
1.93777212500027,1.72111330926418,-3.54790217757225,-0.191782826185226,3.94798955639042
1.94770412500111,0.75290817193687,-3.42652976810932,-0.165280979052186,3.51216383005478
1.95763612500014,0.623323128819466,-1.99041442751884,-0.189507089853287,2.09432429516088
1.96756812500098,1.40562035679817,0.574074370265007,-0.116219185218215,1.52277275686603
1.97750012500001,1.72205573424697,2.10016491115093,0.528154431581497,2.76678797696565
1.98743212500085,2.27314806193113,3.45674467027187,1.12819570183754,4.28825271743154
1.99736412499988,1.78487134873867,3.0818744122982,-0.380629180669785,3.5817026953537
2.00729712500106,2.78130443125963,1.227020663023,-1.74598268687725,3.50566535620629
2.01722912500009,3.86250401437283,-2.19078973710537,-3.0264112329483,5.37379399346198
2.02716112500093,4.51650456011295,-7.14021337330341,-4.49503826200962,9.57010080588248
2.03709312499996,3.75460797518492,-9.28160115480423,-5.16839776933193,11.2675435009686
2.0470251250008,2.82173588097096,-8.23506766676903,-4.58975496947765,9.84095440178789
2.05695712499983,2.06721877455711,-6.2528282314539,-3.46636100113392,7.44223843639334
2.06688912500067,0.965486693680287,-3.04067434608936,-2.62120211184025,4.12899086288108
2.0768211249997,1.1039247867465,1.72077475547791,-1.79810067415237,2.72266078097705
2.08675312500054,1.97512498185039,6.18526423931122,-0.229562198147178,6.49702325737332
2.09668512500139,-0.362847944051027,2.57299240350723,0.142302481345832,2.60234481481705
2.10661712500041,-2.19422088325024,-1.40467953979969,-0.383727035522461,2.63343432266958
2.11654912500126,-2.13661265283823,-2.39111943840981,-0.255142085552216,3.21677840095173
2.12648112500028,-2.06359072342515,-2.82632360637188,0.537305324077606,3.54050968266201
2.13641312500113,-2.38935533344746,-2.59777231872082,1.65156828045845,3.89680865765852
2.14634512500015,-2.97978319644928,-3.1676828867197,1.76452362298965,4.69327885222548
2.156277125001,-3.83295540243387,-3.85284675300121,1.8312368452549,5.73492838687443
2.16620912500002,-4.55229419767857,-3.74605379104614,2.00023658037186,6.22553193270156
2.17614112500087,-5.05919107675552,-2.9068672478199,1.73337199687958,6.08686044091181
2.18607312499989,-5.03675414085388,-2.26613286495209,1.36969974160194,5.69037150098033
2.19600512500074,-4.84530636012554,-1.59297801017761,0.886926720142364,5.17698866825928
2.20593712499976,-4.8104022833705,-1.12171347856522,0.19546657204628,4.94332058809041
2.21586912500061,-4.78732536971569,-0.785763457417488,-0.250882973670959,4.8578648265482
2.22580112499963,-4.61325492918491,-0.403517521619797,-0.527889041081071,4.6608598210627
2.23573312500048,-4.23733246475458,0.168408581614494,-0.71977360881865,4.30132792462704
2.24566612499984,-4.06724193155766,0.833428205251694,-0.678722500428557,4.20686626073588
2.25559812500069,-3.69178695201874,0.879358084201813,-0.426416387557983,3.81895175079823
2.26553012499971,-3.01516937613487,0.552132693529129,-0.140574007853866,3.06852699674117
2.27546212500056,-2.20306099623442,0.179430583119392,0.389507666006684,2.24441290968617
2.28539412499958,-1.31858396708965,-0.445538536906242,0.618209738731384,1.52294174123529
2.29532612500043,-0.72536098882556,-1.05464533030987,0.804078691005707,1.51161102079333
2.30525812500127,-0.283471991568804,-1.4166990762949,0.946245480403304,1.72707068528259
2.3151901250003,0.270370062366128,-1.40023624062538,1.00559705816209,1.74498909554439
2.32512212500114,0.696565644443035,-1.25037795066834,1.01578173838556,1.75512428522127
2.33505412500017,0.980679806470871,-1.21902985811234,0.791608845815063,1.75339990947923
2.34498612500101,1.01773960545659,-0.989448875784874,0.293151307906955,1.44939320808207
2.35491812500004,0.974303490892053,-0.850435416698456,-0.29444589972496,1.32635066185544
2.36485012500088,1.40506224006414,-1.47894385635853,-0.460228496789932,2.09124008616233
2.37478212499991,2.08937036633492,-1.93875135362148,-0.342431074976921,2.87079856137582
2.38471412500076,2.83618522793055,-2.27243557870388,-0.0393967483565211,3.63448238546726
2.39464612499978,3.45377399235964,-2.46998200535774,0.0719329585880041,4.24670934343547
2.40457812500063,3.90270946919918,-2.38287077128887,-0.411612333878875,4.59114789862415
2.41451012499965,4.22488140374422,-2.12065998673439,-0.743360107317567,4.78533237133966
2.4244421250005,4.05051158577204,-1.78374400556088,-1.87693575918675,4.80741870736904
2.43437412500134,3.33453201591969,-1.39854347169399,-4.06693027496338,5.44196191357722
2.44430612500037,2.07798759162426,-1.1649688410759,-7.03455652534962,7.42698931869173
2.45423812500121,0.895470817834139,-0.709492961168289,-10.7462596786022,10.8068193899728
2.46417012500024,0.0837142941355705,0.0662378436326981,-13.7270661377907,13.7274812069167
2.47410216666685,-0.1977847006917,0.773664983510971,-14.4531078886986,14.4751512578246
2.4840341666677,0.239927922785282,1.095534324646,-13.10327932477,13.1511858753328
2.49396616666672,1.23595170021057,1.2477993285656,-10.3101146936417,10.4586349379672
2.50389816666757,2.43647512078285,1.04273689091206,-6.78464711308479,7.283896463223
2.51383116666693,3.81815551489592,0.521219049096108,-3.89078524231911,5.47614742633166
2.52376316666778,5.06407467126846,0.454373095035553,-1.86824840471149,5.41679418912903
2.5336951666668,5.89367879748344,0.433165828585625,0.737785445004702,5.95545210423365
2.54362716666765,6.6484110814333,0.686389442682266,4.46123726248741,8.03586574595152
2.55355916666667,7.1909186732769,1.33398670256138,6.49274358272553,9.77980322497935
2.56349116666752,7.41303919315338,1.93223755538464,5.97279396414757,9.71395695830615
2.57342316666654,7.14483910560608,2.64537800967693,6.28660467267036,9.87765908348334
2.58335516666739,6.3748286318779,3.47733505547047,6.64498753666878,9.84307668040321
2.59328716666641,5.67481517672539,3.94678344190121,5.83445819735527,9.04552537357253
2.60321916666726,5.56499394178391,3.90253873050213,4.11258065700531,7.94432412326782
2.61315116666628,5.8137075984478,2.67224479615688,3.08917758464813,7.10514647564212
2.62308316666713,5.52982937157154,-0.885268449783325,3.61709608107805,6.66679061967805
2.63301516666797,4.12800502717495,-6.10251912117005,5.32175210952759,9.08857583144296
2.642947166667,1.76835822701454,-10.8127600622177,7.25305001735687,13.139619687663
2.65287916666784,-0.223480874598026,-14.0242882955074,9.2092278277874,16.779168128394
2.66281116666687,-0.861921979486942,-15.4757250952721,10.5896747517586,18.7718456223992
2.67274316666771,-1.29663381189108,-16.4540344405174,10.6755528080463,19.6566511992572
2.68267516666674,-0.886060162782669,-16.8467977631092,9.79891718745232,19.5094458027316
2.69260716666759,-0.290219532251358,-17.0106238818169,8.71525621891022,19.1154713043333
2.70253916666661,-0.636148411631584,-17.5296379458904,7.39842700123787,19.0375842324668
2.71247116666746,-2.42417579501867,-18.3485814285278,6.66327528834343,19.6709508233008
2.72240316666648,-4.6856677249074,-18.5805182540417,5.63476759672165,19.9735261405211
2.73233516666733,-6.43349608540535,-17.7444167017937,4.20507074475288,19.337445951733
2.74226716666635,-7.11439908564091,-15.598383307457,2.84154244691134,17.3781069059239
2.7521991666672,-6.8900379127264,-12.5564640891552,1.78212725043297,14.4330658696545
2.76213116666804,-6.48832308769226,-9.32337366342545,0.900376485586166,11.3944859811196
2.77206316666707,-6.18384804368019,-6.37699444055557,-0.239977331757545,8.88614786293597
2.78199516666791,-6.04828561127186,-3.80794598400593,-1.58506497323513,7.32083618325134
2.79192716666694,-6.11954621315002,-1.4456579965353,-3.22189125359058,7.06536312922335
2.80185916666778,-6.1105385774374,1.09265457093716,-5.53598882853985,8.31743638553723
2.81179116666681,-5.94790879905224,3.50024561583996,-8.39477032899857,10.867451740389
2.82172416666799,-6.11624604463577,6.11452287018299,-15.0442099356651,17.3529279430556
2.83165616666702,-7.25944570183754,8.49864962339401,-25.4532384681702,27.7991716753698
2.84158816666786,-6.68968716144562,7.96453454017639,-18.8000379323959,21.4855102573618
2.85152016666689,-4.86452732741833,7.29654160737991,-7.6084227347374,11.6099630515301
2.86145216666773,-3.52721297442913,7.68891492068768,0.279063044786453,8.46395417092509
2.87138416666676,-2.95627972841263,8.69379986107349,2.48717632770538,9.51355832179122
2.8813161666676,-2.65253967940807,9.89949046611786,2.7135109359026,10.6018403986693
2.89124816666663,-2.446456464082,11.5852743136883,3.61297467112541,12.3797138952501
2.90118016666747,-2.66936562716961,13.2632953977585,5.08814414978027,14.4544017015115
2.9111121666665,-3.57281014680862,13.7271830821037,5.7607967287302,15.3097128210977
2.92104416666734,-4.73749305903912,12.6313610744476,5.29804691255093,14.49359942061
2.93097616666637,-6.17324294865131,10.8199544763565,4.01880885958672,13.0893532316686
2.94090816666721,-7.58187520623207,9.0867578959465,2.55043852329254,12.1061446118703
2.95084016666806,-8.51421023368835,7.94263671755791,1.1117299425602,11.6967173769279
2.96077216666708,-8.98192258179188,7.40975598156452,-0.316656694561243,11.648162448809
2.97070416666793,-9.05194240450859,7.45761368751526,-2.21097154811025,11.9349092327218
2.98063616666695,-8.88452492594719,7.88148244321346,-4.37815476000309,12.6578350346731
2.9905681666678,-8.69262632489204,8.51966568589211,-7.02456889629364,14.0531499672618
3.00050016666682,-8.0582741779089,9.05364102065563,-8.15747745394707,14.6098814803169
3.01043216666767,-7.40576525688171,9.35903290808201,-7.91312348127365,14.3197199429487
3.0203641666667,-6.86453060388565,9.55472225904465,-6.9894376552105,13.6845437116201
3.03029616666754,-6.46174983143807,9.35010420978069,-5.90974460721016,12.8102982377577
3.04022816666657,-6.28661168932915,9.03984802365303,-5.48365683317185,12.3008467630137
3.05016016666741,-6.45666509270668,8.62393849790096,-4.96637822270393,11.8627885417343
3.06009216666644,-6.86221744537354,7.95865458011627,-3.50615188837051,11.0780554276244
3.07002416666728,-7.06826630830765,7.0900536185503,-2.35142853856087,10.2838934791758
3.07995616666631,-6.99876162528992,5.99584251880646,-2.04204124867916,9.4394239368335
3.08988816666715,-6.624942111969,4.73877652287483,-2.04546567052603,8.3982016366595
3.099820166668,-6.23631920278072,3.19263880312443,-1.80659974828362,7.23522096253361
3.10975216666702,-6.65525407791138,0.187873377799988,-0.79541282504797,6.70525054042672
3.11968416666787,-7.43689290940762,-3.60228069841862,-0.478297854959965,8.27723209860977
3.12961616666689,-8.2447407156229,-9.87435913324356,0.285479779243469,12.8670204967769
3.13954816666774,-6.51367778420448,-17.6634444594383,1.30546091482043,18.8713936064146
3.14948016666676,-1.07035504460335,-24.6332787394524,1.01584912754595,24.677439713775
3.15941216666761,4.91590037941933,-33.3604048061371,-3.38159800887108,33.8897903573231
3.16934416666663,8.91037254273892,-43.5892619132996,-7.03683986306191,45.0437077543024
3.17927616666748,11.4278193211555,-43.9597648859024,0.9717722312361,45.4312703380634
3.1892081666665,7.66320588290691,-40.9111623001099,2.88350294351578,41.7224461695981
3.19914016666735,0.747249748259783,-41.6233344554901,1.18747009634972,41.646973943008
3.20907216666637,-3.86114687561989,-40.6032245349884,1.63237318709493,40.8190511900478
3.21900516666756,-4.31404647231102,-35.2727016019821,3.86462596893311,35.7450669204505
3.22893716666658,0.333057695925236,-24.2512848186493,8.16385325789452,25.5907061801838
3.23886916666743,5.81316088378429,-12.963548412323,9.84944882512093,17.287511939492
3.24880116666645,8.14762898862362,-6.18048940300942,6.91108262658119,12.3428266806435
3.2587331666673,7.74105512738228,-2.46492124021053,4.1133682769537,9.10601832786765
3.26866516666632,6.35497616529465,-0.0643719971179962,2.79877912759781,6.94428041056474
3.27859716666717,4.83087718605995,1.3562119692564,1.7050907689333,5.29943580229541
3.28852916666801,3.32574306607246,2.13165392160416,0.738908622041345,4.01876863413988
3.29846116666704,2.3761470580101,3.06615475773811,0.295799530148506,3.89035695042578
3.30839316666788,1.73386535570025,3.99111761569977,0.0226439273357391,4.35153095375544
3.31832516666691,1.27157556921244,4.81400679945946,-0.176586570516229,4.98224334114127
3.32825716666775,0.871327737495303,5.59913758814335,-0.245179014801979,5.67183096595691
3.33818916666678,0.627092024758458,6.33863729059696,-0.338777149915695,6.37858425252556
3.34812116666762,0.461282238140702,7.04829806685448,-0.517262822985649,7.08229113850114
3.35805316666665,0.334837296009064,7.66462792575359,-0.848582507148385,7.71872590046303
3.36798516666749,0.21244571685791,8.13720866560936,-1.3753990226984,8.2553631368898
3.37791716666652,0.109234174489975,8.6454433876276,-2.15598418593407,8.91088611101882
3.38784916666737,0.00688875094056129,9.04173842847347,-3.26100094020367,9.61182648594078
3.39778116666639,-0.194478977322578,9.43282067656517,-5.11604472398758,10.7326530553585
3.40771316666724,-1.59110587790608,10.9347353196144,-11.7398782038689,16.1221833095399
3.41764516666626,-3.55417214691639,12.540564340353,-17.6287798261642,21.9242279632334
3.42757716666711,-2.35177659407258,12.0647962832451,-12.4772612142563,17.5149139282332
3.43750916666795,-0.5866443490237,11.498280608654,-6.46859224319458,13.2059567679251
3.44744116666698,0.554699109569192,11.5006323587894,-3.23256096035242,11.9591674508131
3.45737316666782,0.893127253800631,11.8167901396751,-1.88815013408661,11.9999715176935
3.46730512500108,0.677899431735277,11.7956957244873,-1.15209283366799,11.8711963660629
3.4772371250001,0.141819282062352,11.5196486735344,-0.824551108628511,11.5499914632509
3.48716912500095,-0.450042354762554,11.2281158566475,-0.608593407869339,11.2535998572671
3.49710112499997,-0.991282928064466,11.0714081382751,-0.449126242250204,11.124766711676
3.50703312500082,-1.50928768962622,10.9849781048298,-0.352061292976141,11.0937658370663
3.51696512499984,-2.01248401209712,10.8581321167946,-0.297112230062485,11.0470539349623
3.52689712500069,-2.38974271148443,10.6974319195747,-0.200673005953431,10.9629462078562
3.53682912499971,-2.6276267400384,10.5391372668743,-0.19590569794178,10.8635268516937
3.54676112500056,-2.93921082884073,10.3529151427746,-0.243989544957876,10.7648196988112
3.55669312499958,-3.27948632776737,10.1237592530251,-0.290268648862839,10.6456464282699
3.56662512500043,-3.67292441904545,9.91761800408363,-0.420535331144929,10.5842510659794
3.57655712500127,-4.09379647672176,9.72485869288445,-0.565827457308769,10.5665607886783
3.5864891250003,-4.59051393806934,9.52751867294312,-0.888438225388527,10.6129992348638
3.59642112500114,-5.1462333136797,9.26516872465611,-1.39177415013313,10.6894389048327
3.60635312500017,-5.7867507648468,8.89235434770584,-1.86942398741841,10.7728917336226
3.61628512500101,-6.14878170669079,8.33623209893704,-2.12214415624738,10.5737305575553
3.62621712500004,-6.39303042948246,7.56914523303509,-2.37544202998281,10.1884995199919
3.63614912500088,-6.42512111842632,6.76514138638973,-2.70398348271847,9.71395110339276
3.64608112499991,-5.49569391131401,6.54585033416748,-2.10230966985226,8.80173358561418
3.65601312500075,-4.8650863212347,6.04454163908958,-1.77672983184457,7.96004506489249
3.66594512499978,-5.22489649057388,4.52600219249725,-1.76023410558701,7.13320848497876
3.67587712500062,-6.55641625285149,0.0185801124572754,-2.0002038359642,6.85476146095836
3.68580912499965,-8.25573055744171,-8.58835292816162,-2.91808688521385,12.2650774202773
3.6957411250005,-5.92822999477387,-15.2787709915638,-4.45837855875492,16.984165957054
3.70567312500134,0.377471026405692,-21.7733915305138,-5.53783304035664,22.4697720927403
3.71560512500037,4.91408306479454,-31.8106774806976,-1.04648086309433,32.2050079389136
3.72553712500121,4.74689216583967,-41.8792600679398,6.19409938216209,42.6001440869435
3.73546912500024,-0.228217557817698,-49.9664458036423,6.93086024880409,50.4453626539692
3.7454021249996,-7.44601690471172,-61.7698551750183,4.34921162724495,62.3688529465354
3.75533412500044,6.7544211012125,-54.6369443893433,8.89094633817673,55.7661799247988
3.76526612500129,19.5067639911175,-35.4628834605217,5.76277250289917,40.8820191729796
3.77519812500032,13.6718578970432,-30.2196430850029,2.96723741054535,33.300916269563
3.78513012500116,13.8422937083244,-21.9399085378647,2.61303530573845,26.0729099884616
3.79506212500019,15.0611083889008,-11.1627018857002,1.77888891622424,18.831020818519
3.80499412500103,11.0502891647816,-5.77543874144554,2.45591594338417,12.7081118346687
3.81492612500006,6.52981142163277,-3.06855971753597,2.68077412962914,7.69682050435497
3.8248581250009,3.32371262043715,-1.46997364282608,1.88554943874478,4.0942868463027
3.83479012499993,1.23210686355829,-0.442773973345757,1.20458380021155,1.77908916202419
3.84472212500077,0.37576064273715,0.248757510781288,0.265904470682144,0.52324138533672
3.8546541249998,-0.737412538826466,0.940278469920158,-0.405757005214691,1.26195863668136
3.86458612500064,-1.59249941557646,1.76675082743168,-0.990535873174667,2.57655277277369
3.87451812499967,-1.06972624965012,2.84383777141571,-1.50495987296104,3.39066833213514
3.88445012500051,-0.234935972057283,3.91286608278751,-1.6821685141325,4.26560743654806
3.89438212500136,0.274006665050983,4.91149976491928,-1.62799932360649,5.181533690999
3.90431412500038,0.542572057396174,5.83905352413654,-1.65329379379749,6.09280812629183
3.91424612500123,0.479587531462312,6.6257613068819,-1.75055170118809,6.86987251371086
3.92417812500025,0.352099153697491,7.45236288785935,-1.71975149273872,7.65631971792942
3.9341101250011,0.228170670457184,8.11067984819412,-1.64557079136372,8.27907559357617
3.94404212500012,0.078733252119273,8.75118735909462,-1.73884966850281,8.9226160563267
3.95397412500097,0.0731873599346727,9.39158845067024,-1.96233492851257,9.59468855086382
3.96390612499999,0.023264901638031,9.91268646240235,-2.10208630621433,10.1331466483179
3.97383812500084,-0.00639491703361273,10.2707734572887,-1.94296778082848,10.4529398784863
3.98377012499986,0.074813260473311,10.538560731411,-1.82993817865849,10.6965196700278
3.99370212500071,0.216968940161169,10.7987571501732,-1.81936758220196,10.953096818187
4.00363412499974,0.366077215075493,11.0159706866741,-1.77778218448162,11.1645032219316
4.01356612500058,0.683940701857209,11.2629208230972,-1.7178977791965,11.4136906007997
4.02349812499961,0.899184823036194,11.5381422472,-1.75018274188042,11.7047169761843
4.03343012500045,1.08161042310297,11.725665961504,-1.89359681546688,11.9267276420519
4.0433621250013,1.2418684977293,11.7821559119225,-1.90185542285442,11.9991036893571
4.05329412500032,1.37178632050753,11.7985035574436,-2.23894974410534,12.087157641926
4.06322612500117,1.41384928956628,11.8292049479485,-3.08883669197559,12.3073137452439
4.07315812500019,1.62437375754118,11.9117419052124,-3.86333022594452,12.6274900813771
4.08309012500104,2.0485668875277,11.9649726176262,-4.50369389533997,12.9476042083523
4.09302212500006,2.45840861141682,12.0343919312954,-4.82016450226307,13.1948606618484
4.10295412500091,2.90750254780054,12.1433863699436,-4.96136365056038,13.4361651101905
4.11288612499993,3.45022560954094,12.3479453623295,-5.43177156507969,13.9240782015548
4.12281812500078,4.13708107531071,12.5024346470833,-5.39820445418358,14.232600720088
4.1327501249998,5.01646079421043,12.6964943790436,-5.37673815608025,14.6722582316419
4.14268212500065,5.81420870482922,12.8575173425674,-5.6075710272789,15.1843876367706
4.15261412499967,6.86535389184952,13.1947028803825,-5.87012036561966,15.9903590100026
4.16254612500052,8.0540729534626,13.6228933131695,-6.34902019143105,17.0517263276448
4.17247812500136,8.1999849575758,13.6165841674805,-5.22444450080395,16.7315850425634
4.18241012500039,6.57538871347904,12.8915259182453,-2.56648328304291,14.6974152039152
4.19234212500123,4.81546714156866,11.9519695794582,-0.768001443520188,12.908451759877
4.20227412500026,3.70388250231743,11.13285769701,0.13554430603981,11.7336114794955
4.2122061250011,2.61724179267883,9.8253980576992,0.66027702011168,10.1894242887845
4.22213812500013,1.86363407447934,8.833575797081,1.10684283971787,9.09561951700764
4.23207012500097,1.61710522994399,8.50810398638249,1.44909908294678,8.78081721253819
4.242002125,1.44306461021304,8.19421317100525,1.84642703443766,8.52272595796834
4.25193412500084,1.39294724777341,7.59330417394638,2.26825072646141,8.04633653728476
4.26186612499987,1.72995415315032,4.57019837200642,2.42289101555943,5.45434280227882
4.27179812500071,1.71258660703897,-9.75373809099198,5.68432041049004,11.4183999826329
4.28173012499974,-0.313880875110626,-32.9206941890717,11.2431467092037,34.7890640146989
4.29166212500058,2.64247779071331,-54.1798839139938,5.61653480887413,54.5342825483893
4.30159412499961,2.89806660354137,-68.479249792099,-6.61179289340973,68.8587122112561
4.31152612500046,-60.6343446063995,-115.770697345734,5.25496521234512,130.793703094408
4.3214581250013,-41.1325285291672,-78.8175480651856,-1.31070776760578,88.9146148901442
4.33139012500033,31.8850259971619,-13.6581134319305,-26.7258054327965,43.7888983806497
4.34132212500117,5.69817831158638,-19.0527358818054,-12.825349470377,23.6635916481368
4.3512541250002,-4.490448782444,-20.0434997963905,0.514947325587273,20.5468047419493
4.36118612500104,-5.9105801743269,-15.4927440011501,4.88282969713211,17.2858931077777
4.37111812500007,-4.42889221966267,-10.6678660583496,5.60532803535461,12.8389312217259
4.38105012500091,-1.26355538204312,-6.80255479574204,4.64371716856957,8.33279263477922
4.39098212499994,1.93704981386662,-3.69157411336899,3.77738551139832,5.62570197554213
4.40091412500078,4.03779798477888,-1.25318578362465,3.67361205160618,5.60086713642356
4.41084612499981,5.09142677664757,0.665771575570107,4.70772780776024,6.96624572669957
4.42077812500065,4.38510505288839,3.03927276849747,19.8922323274612,20.5953206397932
4.43071012499968,2.83226291567087,6.19231948971748,31.1064201164246,31.8429883388121
4.44064212500052,2.9202094244957,6.02715318918228,4.96537717938423,8.33721591314111
4.45057412500137,2.57460886627436,5.81223468482494,0.0646597166731954,6.35726857421809
4.46050612500039,1.9379939930141,5.97432125687599,0.343263133764267,6.29016412952164
4.47043937499984,1.6238837608695,6.59862379431725,-0.365042842626572,6.80529872413389
4.48037137500069,1.38024563357234,7.2983185762167,-0.819411844611168,7.47274834448708
4.49030337499971,0.829350795596838,7.97631901860237,-1.39879782557488,8.1404006772092
4.50023537500056,0.324689160883427,8.62709657907486,-1.78074262976646,8.81494541953312
4.51016737499958,0.0450187365710735,9.04624604701996,-2.08191750526428,9.28283225791528
4.52009937500043,-0.0937272123992443,9.48914047300816,-2.52689237058163,9.82027274363239
4.53003137500127,0.147508586347103,9.91571298122406,-2.91697883784771,10.3369187018914
4.5399633750003,0.185933710187674,10.280060005188,-3.25267275094986,10.7839735292526
4.54989537500114,0.102770662307739,10.4603296637535,-3.32858188927174,10.9776370807665
4.55982737500017,0.181215591877699,10.5794514799118,-3.15999028980732,11.0427882048975
4.56975937500101,0.264165947288275,10.7530623292923,-3.17995794653893,11.2165175365221
4.57969137500004,0.232732046842575,10.9358416128159,-3.25692484617233,11.4129030242019
4.58962337500088,0.195262796580792,11.1719498419762,-3.42788632214069,11.6876428534106
4.59955537499991,0.0728400810062885,11.3930237102509,-4.30465058147907,12.1793395374448
4.60948737500075,0.0599576416611671,11.5215969657898,-5.11273461520672,12.6051912641746
4.61941937499978,0.256915253698826,11.5579303944111,-4.92958169460297,12.5679169369231
4.62935137500062,0.542351178824902,11.6862826251984,-4.44212856173515,12.513826455412
4.63928337499965,0.931395233720541,11.8500070023537,-3.9556250166893,12.5274551410048
4.64921537500049,1.38697022393346,12.0218309426308,-3.56567829787731,12.6159489274183
4.65914737500134,1.72350072741508,12.3231192541122,-2.83914479613304,12.7628549346093
4.66907937500037,1.75802195772529,12.5806013953686,-2.13111948609352,12.880366568425
4.67901137500121,1.80027101442218,12.8385630083084,-1.84736638963223,13.0951303323494
4.68894337500024,1.98087469518185,13.0139549195766,-2.20039554297924,13.3464837224022
4.69887537500108,2.47865225672722,13.0519232296944,-2.78957561016083,13.574908805897
4.70880737500011,3.11333506375551,13.049375013113,-3.30666243195534,13.8171292203183
4.71873937500095,3.77348307967186,13.0970824456215,-3.54051071226597,14.08218588301
4.72867137499998,4.641162520051,13.2003185462952,-3.50904626011848,14.4257479846572
4.73860337500082,5.45591588795185,13.3545400285721,-3.27581953883171,14.7933008893259
4.74853537499985,5.14518432319164,12.9868893277645,-2.23267743587494,14.1462738791487
4.75846737500069,4.55272045969963,12.3621786546707,-1.69796125888824,13.2828384433015
4.76839937499972,4.23876532495022,11.7175792622566,-1.36920170500875,12.5356893929399
4.77833137500056,3.27871508002281,10.6802738499641,-0.834232709035277,11.2033105062308
4.78826337499959,2.49797204196453,9.80108533501625,-0.398730990886688,10.1222588620229
4.79819537500043,2.08814566701651,9.31604242444038,-0.0283439393341541,9.54724055209409
4.80812737500128,1.90294651329517,8.90837104082108,0.166562615633011,9.11087389542454
4.8180593750003,1.66566123962402,8.48673124372959,0.0368431596457958,8.64872198575573
4.82799137500115,1.68047369867563,7.70422702431679,-0.493128586560488,7.9007772843586
4.83792337500017,1.58230728015304,3.56865277647972,-1.75682854101062,4.28082065618395
4.84785537500102,-4.10572742789984,-15.0031671595573,-2.30235534265637,15.7242762203444
4.85778737500004,-9.61821425020695,-43.3193263721466,-3.95584838032722,44.5502280477618
4.86771937500089,-5.29109398841858,-58.8496340560913,-9.32811809420586,59.8188004837074
4.87765137499991,0.471044530123472,-62.3190677690506,-4.52357910633087,62.4848050207738
4.88758337500076,-0.00495595380663872,-61.87719602108,-8.57678362727165,62.4687812381647
4.89751537499978,-4.99749242663384,-57.879202079773,-9.37201372683048,58.8456591877545
4.90744737500063,-9.72054520189762,-56.2790577220917,0.47200946688652,57.1143075773969
4.91737937499966,-20.8830055975914,-48.7535508441925,66.756753616333,85.2612033465285
4.9273113750005,-11.348816421032,-26.7095525121689,66.6500349140167,72.6940367815562
4.93724337500134,3.86241893738508,-10.2652490079403,-18.3945943379402,21.4162255801594
4.94717537500037,0.467370432168245,-0.07240782558918,-9.78532533466816,9.7967479256828
4.95710737500122,-1.79830284163356,-0.55122111260891,-3.51923971116543,3.99033657350566
4.96703937500024,-2.81491013377905,-1.20752078354359,-0.839987684860826,3.17606750788763
4.97697137500109,-2.90934792906046,-0.189728699326515,0.453462062291801,2.95058133146918
4.98690337500011,-2.68190322697163,0.940493062734604,1.9970358145237,3.47351179131194
4.99683537500096,-2.08275658071041,2.19954535782337,3.49548539757729,4.62539651492614
5.00676737499998,-1.52646885573864,3.64945720374584,5.22131097793579,6.55062847197315
5.01669937500083,-1.12558886691928,5.22205766737461,9.05574192523956,10.5139573137454
5.02663137499985,-0.100857745707035,6.19857191741467,7.18279806017876,9.48815335423804
5.0365633750007,0.80067210316658,6.78318940222263,2.87368079066277,7.41018053557664
5.04649537499972,1.36794104531407,7.43723321735859,1.4034545481205,7.69112379964574
5.05642737500057,1.89229522526264,8.17845258593559,1.30228383019567,8.49492855145572
5.06635937499959,2.34862699136138,8.87232237160206,1.13872551396489,9.24828896641623
5.07629137500044,2.66504044175148,9.34334307432175,0.988315246850252,9.76612857727174
5.08622337500128,2.85371401101351,9.63713525533676,0.924630736112595,10.093215621618
5.09615537500031,3.08412149727345,10.0259750962257,0.72580683901906,10.5146934148196
5.10608737500115,3.34247779726982,10.4713692069054,0.626987725049257,11.0097613280184
5.11601937500018,3.57426990419626,10.7847133076191,0.522530652657151,11.3735871543918
5.12595137500102,3.73423218280077,10.8968278205395,0.560532803535461,11.5325428058771
5.13588337500005,3.74456772118807,10.9069797563553,0.757062253206968,11.5566923502938
5.14581537500089,3.74641397953033,10.952842977047,1.18555213652551,11.636404979816
5.15574737499992,4.00020740479231,10.9884115898609,1.18067906700075,11.753333638113
5.16567937500076,4.26789878457785,10.9453117632866,1.10267033971846,11.7996055658245
5.17561237500013,4.64836716681719,10.8941509652138,1.02174012422562,11.8883891024758
5.18554437500097,5.11895780682564,10.8620170068741,0.798139089345932,12.0342913580994
5.195476375,5.72180047810078,10.8955355858803,0.0771820771694183,12.3068132953829
5.20540837500084,6.7415771073103,11.1801827216148,-1.29143826842308,13.1191905384308
5.21534037499987,7.58800308823586,11.5298052871227,-2.69759189128876,14.0638260383861
5.22527237500071,7.88250629067421,11.5317828154564,-3.90737730145454,14.5046033279541
5.23520437499974,8.09074669003487,11.3193920624256,-4.40937012076378,14.5955939765088
5.24513637500058,8.35275106787682,11.239188144207,-4.6360865521431,14.7506304631959
5.25506837499961,8.69290523707867,11.2550083708763,-4.54451447725296,14.9296492498413
5.26500037500045,9.29854638576508,11.3406092691422,-4.63039721131325,15.3789779185132
5.2749323750013,10.1849024176598,11.5200790286064,-4.59921634912491,16.0498364199965
5.28486437500033,11.1999509882927,11.8896090245247,-4.71812064886093,17.0018342349708
5.29479637500117,12.0981499707699,12.3853172564507,-4.78053733706474,17.9614824969779
5.3047283750002,12.580981464386,12.6955787050724,-4.22585408806801,18.3661824023816
5.31466037500104,10.5788106250763,12.1865528547764,-2.35379899978638,16.3083927612405
5.32459237500007,6.85682280421257,11.1273472809792,-0.284929994791746,13.0734487256353
5.33452437500091,4.6759581309557,10.4065785491467,0.762390089929104,11.4342774232232
5.34445637499994,3.36039922088385,9.80115374743938,1.16489633560181,10.4264989894672
5.35438837500078,2.44659007295966,9.22003816008568,1.53069843918085,9.6611564716783
5.36432037499981,2.06023792997003,9.00954482853413,1.90582889825106,9.43655986760334
5.37425237500065,1.75685032188892,8.82370335817337,2.2185014462471,9.266391567032
5.38418437499968,1.40880124211311,8.52540940582752,2.51793238967657,9.00040610171198
5.39411637500052,1.16556569561362,8.21113559782505,2.69735332489014,8.7210668014846
5.40404837500137,0.871557825431228,7.20925261795521,2.78878506660461,7.77883400647432
5.41398037500039,0.526168534420431,-0.229089816212654,4.42938952535391,4.4664109795026
5.42391237500124,-6.67432009398937,-26.7729410076141,9.19842685103417,29.0851848102783
5.43384437500026,-15.1049765396118,-67.135690612793,-1.82028501033783,68.8380324227657
5.44377637500111,-102.170653781891,-183.984801635742,-6.32272526264191,210.545070191418
5.45370837500013,-31.4154969191551,-93.5688569355011,-0.373053564615548,98.7026018089482
5.46364037500098,27.0162459897995,-11.7554528474808,-18.138726028204,34.5988670473029
5.47357162499975,8.02737573623657,-16.7595280694962,-17.0491687273979,25.2189352792348
5.48350362500059,-0.177817482501268,-14.7484928512573,-11.1523499751091,18.4912025138439
5.49343562499962,-4.97308030128479,-13.371826736927,-5.60306984066963,15.3274808629744
5.50336762500046,-4.13315408527851,-8.31314319849014,-2.63471151888371,9.6505449234225
5.51329962500131,-1.1908572421968,-4.79433208823204,-2.25999708920717,5.43243481201283
5.52323162500034,1.37635284975171,-2.80253596365452,-2.19069442749023,3.81414434299928
5.53316362500118,2.99465617418289,-2.19164810836315,-1.82393718123436,4.13497688911953
5.54309562500021,3.82901554852724,-1.44649180948734,-1.52208782941103,4.36697263401301
5.55302762500105,4.4222424736619,-0.305608234405518,-0.531815080940724,4.46457749054844
5.56295962500008,4.24028004616499,0.613435487151146,0.386752969622612,4.3018433056439
5.57289162500092,3.3823446983099,1.57445636987686,0.409486944079399,3.75324500615166
5.58282362499995,2.48424277961254,2.42033563613892,0.416768481731415,3.4933054185092
5.59275562500079,1.695714173913,3.33842041432858,0.669584617987275,3.80379297321245
5.60268762499982,1.23242729097605,4.17753562152386,1.06813083685935,4.48459411555752
5.61261962500066,1.10070560216904,4.876286662817,1.23214399337769,5.14858264583856
5.62255162499969,1.13130349695683,5.60528768956661,1.08605131030083,5.82053306267046
5.63248362500053,1.12904208630323,6.47574689626694,0.828362762331963,6.62542215735519
5.64241562500138,0.856532600820064,7.49791386723518,0.62104563832283,7.57218978510345
5.6523476250004,0.853069002628326,8.28748912453652,0.559187943935394,8.35002358494867
5.66227962500125,1.03454932719469,8.87073836088181,0.326901454925537,8.93684261575929
5.67221162500027,1.15811385780573,9.36713481009007,0.138640406727791,9.43947368344339
5.68214362500112,1.29305443882942,9.69685520768166,-0.00903745651245117,9.78269249113655
5.69207562500014,1.43310402452946,9.99313830256462,-0.0761412682151422,10.0956623245844
5.70200862500133,1.55121076405048,10.2362409710884,0.184111279249191,10.3547467866598
5.71194062500035,1.67233554393053,10.3977948617935,0.9452024102211,10.5737529645685
5.7218726250012,1.82363488018513,10.6059908223152,1.15814046263695,10.8237689752904
5.73180462500022,2.0919986897707,10.7704531180859,1.22716918230057,11.0401568416792
5.74173662500107,2.4156955781579,10.7885128283501,1.46815165042877,11.1527155187632
5.75166862500009,2.81029726535082,10.8742447042465,1.44593807816505,11.3242088259339
5.76160062500094,3.31208133906126,11.0111256837845,0.719874107837677,11.5209804422971
5.77153262499996,3.835517359972,11.0238726139069,-0.244121253490448,11.674611600079
5.78146462500081,4.12664204120636,11.009320063591,-1.04321460843086,11.8034994606719
5.79139662499983,4.20008423924446,10.8879377138615,-1.92918589353561,11.8283411131694
5.80132862500068,4.73418792039156,10.8747849869728,-3.41030374467373,12.3411367146388
5.8112606249997,5.49909699082375,11.2271662688255,-5.08623620331287,13.4966339825244
5.82119262500055,5.86702251076698,11.513291580677,-5.70041721045971,14.1234766448223
5.83112462500139,6.13209901571274,11.6816984081268,-6.02514700949192,14.5040378006584
5.84105662500042,6.46730936408043,11.8872865104675,-5.52914173901081,14.6186551831123
5.85098862500126,6.4551337069273,11.7941193151474,-4.64154141962528,14.2237093735895
5.86092062500029,6.54916219711304,11.6741344499588,-4.00004514455795,13.9705870241129
5.87085262500113,7.39244003713131,11.6953060483933,-4.18801324725151,14.455718876186
5.88078462500016,8.97746115624905,11.9315850162506,-5.03253479003906,15.757028153333
5.89071662500101,9.78247364759445,11.9545400154591,-4.62753909230232,16.1251956793671
5.90064862500003,8.31073473036289,10.8265244078636,-2.46855528473854,13.8699570189073
5.91058062500088,6.24284235656261,9.51065764188767,-1.36198024749756,11.4577781294919
5.9205126249999,5.02957609891892,8.26330971837044,-0.38099755525589,9.6811198925353
5.93044462500075,4.45215156644583,6.39541141569614,0.86519832059741,7.84037683281787
5.94037662499977,4.30926169574261,2.76367069065571,2.6539845263958,5.7663893308666
5.95030862500062,4.13886038303375,-5.43903439164162,4.73301350712776,8.31352375604716
5.96024062499964,2.49432951897383,-21.1903095245361,5.05182475447655,21.9265097734412
5.97017262500049,-0.266349297612905,-41.3597840738297,1.88600069761276,41.4036191559814
5.98010462500133,-4.80428287982941,-58.533524222374,-3.52493314504623,58.836041212489
5.99003662500036,-6.36466500163078,-65.1874591684341,-9.79137427926064,66.2252580492958
5.9999686250012,-4.65790982276201,-50.6289493703842,-48.0778512811661,69.9747556057171
6.00990062500023,-11.3704160356522,-51.2064016771317,-10.9030913579464,53.574801303442
6.01983262500107,-5.71509430646896,-41.5254754543305,8.70993291378021,42.8122686388211
6.0297646250001,0.346244702115655,-26.7934553790092,6.84570140004158,27.6563331661888
6.03969662500094,0.282312123253942,-18.8279712510109,8.73118403434754,20.7558612494272
6.04962862499997,-5.04541386723518,-14.3834979557991,14.6155306756496,21.1176455000794
6.05956062500081,-27.6063586878777,-8.27352772772312,62.930583615303,69.2157543860342
6.06949262499984,-16.7763774061203,-4.65379893779755,42.9560505580902,46.3500481442601
6.07942462500068,-5.12646036922932,-10.5294484305382,4.87414307355881,12.6849182445203
6.08935662499971,-4.40412926137447,-10.9882490372658,0.53501774713397,11.8500723814505
6.09928862500055,-2.88841051161289,-8.68413032054901,-1.62274618506432,9.29464038513676
6.10922062499958,-1.62629866093397,-5.79241847097874,-3.99493116974831,7.22194116069342
6.11915362500076,-0.0657997409999371,-2.44889226794243,-5.9543062376976,6.4385686078653
6.12908562499979,1.12490956664085,0.923511579036713,-7.7689065849781,7.90406254377147
6.13901762500063,1.89832882091403,4.08213537454605,-9.67843063116074,10.6742447512985
6.14894962499966,2.41114776000381,6.82843749582768,-10.5023945331573,12.7570170135926
6.1588816250005,2.83687783062458,9.06326612234116,-10.7707396316528,14.3596483537419
6.16881362500135,3.49521642565727,10.7080200576782,-10.6262432384491,15.485324561678
6.17874562500037,4.04285085618496,11.6724504518509,-9.39467227220535,15.5193624127544
6.18867762500122,4.2955479285121,12.1477483928204,-7.3496074283123,14.8336189910526
6.19860962500025,4.35933461934328,12.3531411981583,-5.48355509161949,14.2011715089941
6.20854162500109,4.35225714951754,12.3123580384254,-3.84022086024284,13.6118918235986
6.21847362500012,4.51657531142235,12.3202026629448,-2.66855578780174,13.39059506491
6.22840562500096,4.65644012510777,12.3255937957764,-1.87960969090462,13.309230993838
6.23833762499999,4.64294679790735,12.218900821209,-0.976534130573273,13.1077118962431
6.24826962500083,4.72680054813624,12.1331315231323,0.185528644323349,13.0226704195934
6.25820162499986,5.07591762185097,12.1262247920036,1.66291655659676,13.2504927789205
6.2681336250007,5.5360636729002,12.0668194198608,3.13195815324783,13.6405752728993
6.27806562499973,5.75717671751976,12.3026937603951,5.75976820349693,14.7538566916189
6.28799762500057,5.89114929199219,12.7768210887909,8.26321031570435,16.3166614795146
6.2979296249996,6.57442567706108,13.1723361110687,10.0848904716969,17.8448459626943
6.30786162500044,5.65319685101509,12.8305675256252,8.13041537046433,16.2075831561105
6.31779362500129,4.81596152365208,12.1385811281204,5.92285640358925,14.3394164866914
6.32772562500031,4.57399906218052,11.4969977295399,4.66989252179861,13.2253665498928
6.33765762500116,4.53629767745733,10.9190285289288,3.52738312840462,12.3387848821761
6.34758962500018,4.62808492988348,10.4241353988647,2.60234542608261,11.6984601828075
6.35752162500103,4.83009775221348,10.0794771194458,1.96718709424138,11.3488117598768
6.36745362500005,4.98144298911095,9.84575689315796,1.55689849689603,11.1435019622454
6.3773856250009,5.24675689101219,9.6940631622076,1.30004858583212,11.0992542448481
6.38731762499992,5.79444628536701,9.62534902274609,1.14629283428192,11.2932253508734
6.39724962500077,6.51318252503872,9.60499135673046,1.21641966104507,11.6686366966803
6.40718162499979,6.60815007805824,9.32867650330067,1.09244246318936,11.4841318040483
6.41711362500064,6.74317047357559,9.00974129498005,1.02765736028552,11.3005250271091
6.42704562499966,7.11582054376602,8.74217738449574,0.943166409730911,11.3115043345046
6.43697762500051,7.65724815487862,8.53634019076824,0.866000850945711,11.5001091573844
6.44690962500135,8.21187059283257,8.24349175035954,0.868080120831728,11.6680563063373
6.45684262500072,9.30762243390083,7.78949638545513,0.896523316651583,12.1701209266125
6.46677462499974,10.767971559763,6.96264629781246,1.05222662955523,12.8660341931867
6.47670729166748,11.051332308054,5.80051511049271,1.30949330091476,12.5496093180319
6.48663929166651,9.93899191617966,3.75045382082462,1.79584160238504,10.7737881561167
6.49657129166735,8.64309163749218,0.0845372897386551,3.88695707023144,9.47726832337598
6.50650329166638,7.94315711975098,-6.54669057905674,6.38653183400631,12.1136572278456
6.51643529166722,8.16730662345886,-17.9679534173012,5.6194174861908,20.5214546358685
6.52636729166625,6.84811630010605,-33.6511119961739,-0.585682847499847,34.3458448700373
6.53629929166709,1.58421683460474,-50.0372298574448,-7.17328697919846,50.573611309375
6.54623129166794,-7.10357705891132,-60.1461208105087,-5.0652113699913,60.775595610466
6.55616329166696,-11.2972884178162,-56.0247927188873,-4.04410391449928,57.2953828965379
6.56609529166781,-9.19674168348312,-42.152872338295,-3.18638286709785,43.2619664340058
6.57602729166683,-6.16891308546066,-29.6667561006546,-0.809205529689789,30.3121546542138
6.58595929166768,-4.50067263901234,-21.7089271473885,0.495937442779541,22.1761025890783
6.5958912916667,-4.21534810334444,-17.4003641939163,1.32708172559738,17.9527986570259
6.60582329166755,-4.03166425555945,-14.9163441932201,2.14984110116959,15.6004313248207
6.61575529166657,-4.12819740056992,-13.3100485646725,2.86046140551567,14.226090328142
6.62568729166742,-4.68410242527723,-11.6849096989632,2.49424444198608,12.8335180500044
6.63561929166644,-6.89834739089012,-10.2101062560082,0.974183549880982,12.3605218366069
6.64555129166729,-8.87600494801998,-8.15310958385468,-0.0518659905530512,12.052358682208
6.65548329166631,-12.0080361914635,-6.06227273583412,-0.812704503536224,13.4760740762732
6.66541529166716,-14.0596733057499,-3.73572585403919,-2.31623414754868,14.7307502099256
6.675347291668,-14.0912003231049,-1.62044179737568,-3.76584193825722,14.6754667274499
6.68527929166703,-13.7942950844765,0.219941262602806,-5.34995732367039,14.7970603297311
6.69521129166787,-11.5173705983162,3.19168629169464,-4.77027605831623,12.8682640847977
6.7051432916669,-8.76703740656376,5.92278038978577,-3.95947014570236,11.2967993816137
6.71507529166775,-6.11412350535393,8.12961254775524,-2.97173158049583,10.597372079995
6.72500729166677,-3.9697612452507,9.55278566122055,-1.32487498641014,10.429286263361
6.73493929166762,-1.84928032949567,10.6452724170685,0.547781780362129,10.8185825064819
6.74487129166664,0.621479647904634,11.6559098482132,1.97037309587002,11.8376028603498
6.75480429166782,2.36728516414762,12.3558952367306,2.62448298454285,12.8514628383546
6.76473629166685,2.91945513367653,12.4873242723942,2.91767290234566,13.151779382523
6.77466829166769,2.98277960211039,12.2472060227394,2.89159315109253,12.9326076438449
6.78460029166672,3.22329955548048,11.7404009449482,3.99135852098465,12.8124009153452
6.79453229166757,5.06737308561802,11.7698966395855,9.30533032536507,15.836600309395
6.80446429166659,7.39396206736565,11.8857779288292,12.1452294123173,18.5323767904957
6.81439629166744,6.28834421932697,11.0998712146282,5.87218560218811,14.0439658839169
6.82432829166646,4.34258205413818,10.1819016265869,-0.164486927166581,11.0705101770255
6.83426029166731,3.4275968849659,9.6394244402647,-2.42345921874046,10.5138041892694
6.84419229166633,3.02791279792786,9.23035440266133,-2.50158386707306,10.0312322351038
6.85412429166718,2.86174311518669,9.09648590862751,-1.94593231916428,9.73253729168018
6.86405629166802,2.67773942470551,9.06739951908589,-1.40174365282059,9.55787150643719
6.87398829166705,2.59734664142132,8.96900959074497,-0.933974586725235,9.38411696129298
6.88392029166789,2.71686753004789,8.95307885169983,-0.640669478774071,9.37813667428749
6.89385229166692,3.01863619029522,9.07966405391693,-0.52165291249752,9.5825145730371
6.90378429166776,3.23699607342482,9.17164134085178,-0.42536034386605,9.73540342701436
6.91371629166679,3.40069062978029,9.31718029260635,-0.467863864079118,9.92942304264043
6.92364829166763,3.52957291066647,9.46593813657761,-0.594783453941345,10.1200611210757
6.93358029166666,3.53753097116947,9.60271912872791,-0.615651654973626,10.252090859795
6.9435122916675,3.36076554894447,9.77859168112278,-0.911003288403153,10.3800543029686
6.95344429166653,3.22543817460537,9.97809341669083,-1.30735687449574,10.5676384139363
6.96337629166737,3.26448588073254,10.213322224617,-0.834278536587954,10.7547589283056
6.9733082916664,3.20514716684818,10.1987264049053,0.83499365106225,10.7230687324377
6.98324029166724,2.87313319891691,10.3245877218246,0.99137202501297,10.7626588023754
6.99317229166627,2.67009389787912,10.342325835228,0.153506952524185,10.6825404043228
7.00310429166711,2.58903248548508,10.125523942709,-1.06501624435186,10.5054073660188
7.01303629166796,2.78048406690359,9.87383054494858,-2.76066989958286,10.6228489385441
7.02296829166698,2.80015088438988,9.84049907684326,-4.49886321812868,11.176584331187
7.03290029166783,3.56493277788162,9.64705271780491,-6.0931062734127,11.9540920152901
7.04283229166686,4.36742658108473,9.98083693027496,-6.30557304024696,12.5877627931176
7.05276529166804,5.7951380109787,10.846664557457,-7.04305077552796,14.1717437464466
7.06269729166706,6.74310849308968,10.065946662426,-9.86946969151497,15.626875130752
7.07262929166791,4.24730167508125,5.19058210551739,-10.192307331562,12.2010181072843
7.08256129166693,-1.54099845573306,-4.82237942755222,-6.35926509797573,8.12836220712284
7.09249329166778,-13.5851787722111,-25.2125623941422,-3.08891504466534,28.8057595092475
7.10242529166681,-24.4735468411446,-52.6890076446533,-1.89401196777821,58.1263563531908
7.11235729166765,-22.3497960162163,-68.3772135400772,-0.12137591779232,71.9372743825148
7.12228929166668,-9.44283520281315,-67.3733167791367,3.24455798506737,68.109163164789
7.13222129166752,5.78239225029945,-47.3676812124252,-1.1281576949358,47.7326515433923
7.14215329166655,8.97506321310997,-26.4673327732086,-4.0216558688879,28.2355304489723
7.15208529166739,2.52105246394873,-18.1461250948906,-3.28696374714375,18.6129442098889
7.16201729166642,-3.3586064645648,-18.4094217073917,-2.00045175790787,18.819905744188
7.17194929166726,-6.63135650753975,-20.9074773645401,-1.28858716607094,21.9717535887195
7.18188129166629,-6.71313741981983,-21.4139631843567,-1.45552049517632,22.4887210216643
7.19181329166713,-3.88880186676979,-17.9962539410591,-4.39023452281952,18.9278127377527
7.20174529166798,-3.38110216498375,-17.831671192646,-4.29665919184685,18.6510490209956
7.211677291667,-2.66831956028938,-20.3775488877296,1.8772275352478,20.6370640151822
7.22160929166785,-3.36914431661367,-18.0856157684326,10.6119058656693,21.2380125541769
7.23154129166687,3.55115176767111,-12.9603885769844,26.5964860725403,29.7985808781272
7.24147329166772,14.1415191221237,-9.25538984119892,32.9022169876099,36.9891968944139
7.25140529166674,14.2550521695614,-8.15059352695942,31.3882021164894,35.4239737932409
7.26133729166759,11.6424331855774,-3.2068294107914,26.3022822475433,28.9420119684168
7.27126929166661,8.30987226605415,1.08446262180805,16.7623826801777,18.7405311923904
7.28120129166746,6.53972011327744,2.81213884592056,8.52062462925911,11.1030224768519
7.29113329166648,6.24681963264942,3.94419195592403,2.94153772830963,7.95185826804648
7.30106529166733,6.13408005237579,4.89995385289192,0.84335107639432,7.8960576801009
7.31099729166635,6.08520551562309,5.52172922372818,-0.218644861802459,8.21991638419371
7.32093029166754,6.38486186921597,6.18831648588181,-1.2465794532001,8.97862363347218
7.33086229166656,6.78122532248497,6.77457937717438,-1.84986607432365,9.7622716160165
7.34079429166741,7.21709081053734,7.22995526969433,-2.05447769165039,10.4201502654622
7.35072629166643,7.76242962419987,7.80600190579891,-2.48319437384605,11.2851776114642
7.36065829166728,8.26358921527863,8.42120383679867,-3.3573800110817,12.2668488748575
7.3705902916663,8.5456618219614,8.95080311536789,-4.59395736336708,13.2003657768201
7.38052229166715,8.44068032741547,9.17398899793625,-5.81016827881336,13.7537345456426
7.39045429166799,8.36046003699303,8.80333341300488,-9.00512901127338,15.1158301035822
7.40038629166702,9.23212201595307,7.87538438200951,-14.571397061348,18.9625781053449
7.41031829166786,11.6442259418964,7.15850638747215,-20.3169039058685,24.4869107035924
7.42025029166689,12.5216790032387,5.76945762455464,-22.91422072649,26.7421128156319
7.43018229166773,13.0012442421913,3.80437976717949,-16.2482545495033,21.1544660335233
7.44011429166676,13.5651076197624,1.94326131105423,-6.03546500623226,14.9738187213627
7.4500462916676,11.6832701396942,1.78159807741642,-3.61735014259815,12.3595353844989
7.45997829166663,8.5108176791668,3.52892913222313,-7.86279883503914,12.1124301405029
7.46991062500092,7.10659714579582,5.43181424975395,-7.87054171800614,11.9144347734728
7.47984262499995,6.50097529292107,6.56616356134415,-5.65997143507004,10.8357030376115
7.48977462500079,6.20618323802948,7.1477662217617,-4.05900642067194,10.299650744953
7.49970662499982,6.11324642300606,7.50083805978298,-2.91416720420122,10.1057767599293
7.50963862500066,6.10734131991863,7.68852198779583,-2.23699341192842,10.070607125681
7.51957062499969,6.21524876117706,7.86008865058422,-1.93837567001581,10.2062535240148
7.52950262500053,6.33577098548412,7.97296096265316,-1.82675963222981,10.3463593232807
7.53943462500138,6.47340333223343,8.12150479853153,-1.79166990637779,10.5391589772506
7.5493666250004,6.61605375945568,8.28751426756382,-1.76067440092564,10.7496527585386
7.55929862500125,6.73730571627617,8.50776601731777,-1.85387317121029,11.0095511559249
7.56923062500027,6.86530652940273,8.7830926913023,-1.92485252201557,11.3128337828405
7.57916362499964,7.02845904886723,9.04508128166199,-1.86904947325587,11.6062947544405
7.58909562500048,7.28125172317028,9.39017225503922,-1.73646225035191,12.0086328440158
7.59902762500133,7.51053098917008,9.61949654459953,-1.60446486532688,12.3092281242536
7.60895962500035,7.62759750902653,9.64051026821137,-1.4543177229166,12.378801316379
7.6188916250012,7.61748007178307,9.22403122365475,-1.09322343192995,12.0126554987268
7.62882362500022,7.77714998960495,8.5411629742384,-0.474146002940834,11.5611565747298
7.63875562500107,8.50362735807896,8.09053268194199,0.499266883917153,11.7480919618471
7.64868762500009,10.4022153568268,6.67007443070412,2.02855990827084,12.5224211932988
7.65861962500094,12.5973302793503,1.71073391675949,3.65235099077225,13.2272071300325
7.66855162499996,10.391759365797,-13.9846242928505,4.36554056167603,17.9615234243773
7.67848362500081,-4.15807462602854,-48.9863121271134,2.59443823635578,49.2308792342048
7.68841562499983,-22.062068567276,-82.6883206272125,2.4313342487812,85.6154461755891
7.69834762500068,-19.9588508248329,-79.4943469047546,1.74108096599579,81.980109044765
7.7082796249997,-5.53486323952675,-52.8418772506714,-2.48082508206368,53.1888446532079
7.71821162500055,-1.21646176099777,-29.6136540269852,-3.17279861569405,29.8079676446029
7.72814362500139,-3.94557950019836,-18.6825346255302,-0.486923411674798,19.1008322341033
7.73807562500042,-6.28926340162754,-15.82842212677,1.37016634941101,17.0871629296186
7.74800762500126,-8.72049356997013,-16.5037170624733,1.98557761073112,18.7713133112816
7.75793962500029,-9.52781103372574,-16.2717743897438,2.16187467098236,18.9795555000148
7.76787162500114,-8.27888670086861,-13.4372325217724,1.92473031520844,15.8998040754054
7.77780362500016,-6.74354528009892,-10.4323869895935,1.7939478354156,12.5510298414742
7.78773562500101,-6.14945179760456,-7.94029081463814,1.5288502804935,10.1588069581154
7.79766762500003,-5.78716182410717,-5.46431190490723,1.67818480610847,8.13426399964789
7.80759962500088,-5.28557597100735,-3.24114555001259,4.53537177085877,7.68192260580379
7.8175316249999,-6.09257651567459,-1.92975833594799,14.0299624335766,15.4169809535486
7.82746362500075,-5.75099036335945,0.685515283942223,18.7114993929863,19.5873436406701
7.83739562499977,-2.34482103869319,3.36200983643532,7.90654887199402,8.90588630676453
7.84732762500062,-1.09333657555282,4.3949087870121,1.96085207462311,4.93513413922575
7.85726062499998,-0.657510921657085,5.58715722799301,1.01124926917255,5.71587889889341
7.86719262500083,-0.125133996382356,6.72968504011631,0.47870694078505,6.74784999769346
7.87712462499985,0.438708331212401,7.76710622727871,-0.0899265953153372,7.78000584435847
7.8870566250007,0.911789081096649,8.65638411283493,-0.470376851186156,8.71697192948789
7.89698862499972,1.25195245966315,9.35538073718548,-0.714001237526536,9.46574516169473
7.90692062500057,1.52946716174483,9.91520895123482,-0.958000795841217,10.0781150951125
7.91685262499959,1.77574457600713,10.3236509978771,-1.2586833357811,10.5506076822599
7.92678462500044,2.01416230916977,10.7171580862999,-1.53943739533424,11.0129103668638
7.93671662500128,2.19173391625285,11.0015198779106,-1.64443467736244,11.3376056816167
7.94664862500031,2.33055032417178,11.157493185997,-1.66508704304695,11.5192722803999
7.95658062500115,2.41115565374494,11.2959026277065,-1.61404494345188,11.6625995747387
7.96651262500018,2.40135835155845,11.3404595804215,-1.43470557689667,11.6803649566334
7.97644462500102,2.34128347322345,11.2786638665199,-1.18718416750431,11.5801240564816
7.98637662500005,2.29895240932703,11.1640373897552,-0.992092401981354,11.4413793029631
7.99630862500089,2.26794330909848,11.0675454676151,-0.77230959892273,11.3238947207929
8.00624062499992,2.21807036027312,10.9115967178345,-0.637081042528152,11.1529660319812
8.01617262500076,2.08790432319045,10.7332835376263,-0.640399337410927,10.9532110028627
8.02610462499979,2.0128393766284,10.4987482094765,-0.689276213049889,10.7121584202236
8.03603662500063,1.91454885095358,10.2264550709724,-0.609103869795799,10.4219426282007
8.04596862499966,1.81693002417684,10.0805857515335,-0.304262826628983,10.2475372492343
8.0559006250005,1.74782339036465,9.8643089389801,-0.0548609526827931,10.0181079636665
8.06583262500135,1.91365101099014,9.58443956315518,-0.231644501276314,9.77635929713149
8.07576462500037,2.39051395922899,9.36927547574043,-0.989629043117166,9.71994061569107
8.08569662500122,3.22225553512573,9.22799037337303,-2.15618065237999,10.0093881966088
8.09562862500025,4.51701414495707,9.19407126009464,-3.62838793158531,10.8673622422147
8.10556062500109,6.20847768545151,9.2783881098032,-5.57001845419407,12.4763290541308
8.11549262500012,7.91204700887203,9.4491689068079,-7.05094627082348,14.1987014974619
8.12542462500096,9.315348944664,9.55218339800835,-7.49844304025173,15.3051161922391
8.13535762500032,10.3855613172054,9.63866839528084,-7.23524758458138,15.9095135034925
8.14528962500117,10.7897699797154,9.54185838460922,-6.39326373338699,15.7588076583143
8.1552216250002,11.1814106369019,9.52653283238411,-5.64476984381676,15.7366514299319
8.16515362500104,10.6588940906525,9.36920472443104,-4.21132492661476,14.8030158427793
8.17508562500007,9.00169786512852,9.04121276378632,-2.55544724822044,13.011702553223
8.18501762500091,7.38207584738731,8.55871163785458,-1.24220822095871,11.3705615508093
8.19494962499994,5.49662127971649,7.59028174817562,-0.171995994597673,9.37308941232707
8.20488162500078,3.68819968521595,6.06904264211655,1.06319322869182,7.1809801107782
8.21481362499981,2.93636732786894,3.37966316521168,3.00968117952347,5.39467858142101
8.22474562500065,2.79297664314508,-3.60003127455711,4.92425020337105,6.70888841555314
8.23467762499968,1.35006888449192,-18.7742072725296,5.00692047715187,19.4772379296783
8.24460962500052,-2.17744858369231,-40.194270272255,-1.42918346643448,40.2785701140747
8.25454162500137,-6.43392702519894,-55.7049406671524,-10.9980980873108,57.1436260070593
8.26447362500039,-9.49664069652557,-57.1995404434204,-24.6655132699013,63.0108019019364
8.27440562500124,-12.5969654130936,-58.8710208320618,-12.974060536623,61.5857684715851
8.28433762500026,-6.68499243199825,-46.3220821094513,-2.41752897262573,46.8643666457161
8.29426962500111,1.31505034849048,-28.6399897098541,-0.0775375513359904,28.6702699685839
8.30420162500013,3.2698401761055,-19.1977304577827,1.5803679049015,19.5382259230923
8.31413362500098,3.49369059473276,-14.9246296977997,2.23422460913658,15.4900679531189
8.324065625,2.93639364033937,-13.9379389536381,3.65849992275238,14.7062290058038
8.33399762500085,1.39237115085125,-14.5760280561447,8.44587499380112,16.9036119136164
8.34392962499987,-5.38500962734222,-16.2078152060509,37.2218732786179,40.9531372767649
8.35386162500072,-17.0164301669598,-16.7296885585785,83.7131457424164,87.0478727194703
8.36379362499974,-6.69597642660141,-8.82772507309914,26.9361484909058,29.125949354415
8.37372562500059,1.84443211063743,-3.70526302993298,3.11162299901247,5.1781368869239
8.38365762499961,2.90232016056776,-2.82041090190411,1.1095595292002,4.19634392285196
8.39358962500046,3.05952167630196,-1.9914751124382,-0.804776848554611,3.73822307884264
8.4035216250013,3.33347250044346,-1.20143617093563,-2.00538797736168,4.07149465476648
8.41345362500033,3.40515790253878,-0.532539258599281,-2.95737023413181,4.54144658725616
8.42338562500117,3.5894419670105,0.401121332645416,-3.70262710511684,5.17246937521967
8.4333176250002,4.09385611832142,1.90523394405842,-4.065439234972,6.07596662864106
8.44325062500138,4.62617873758078,3.49998950779438,-4.05579308331013,7.07819989837398
8.45318262500041,5.06331570267677,5.23965778648853,-4.09293050408363,8.35722799352401
8.46311462500125,5.50951672911644,7.01230319201946,-4.39958071231842,9.94401735162527
8.47304675000123,6.27465998053551,8.48929115474224,-4.81360860407353,11.6021657450034
8.48297875000026,7.24188885211945,9.56425497472286,-4.86518513917923,12.9456538578186
8.4929107500011,7.96714005947113,10.1462055444717,-4.5294134581089,13.67246846595
8.50284275000013,8.21109291315079,10.5273714995384,-4.46886729419231,14.0790046669071
8.51277475000097,7.78869356274605,10.5502668571472,-4.10552949965,13.7414428152169
8.52270675,7.45840656995773,10.4068557071686,-3.85830746769905,13.3722477836719
8.53263875000084,7.71262713432312,10.3015099310875,-3.81503748714924,13.4223781500055
8.54257074999987,7.86683516800404,10.009236856699,-3.68333012402058,13.2528803969765
8.55250275000071,7.77120804905892,9.61912758529186,-3.50151972413063,12.8522344525128
8.56243474999974,7.66577222585678,9.06541438937187,-3.23558017015457,12.3050713491327
8.57236675000058,7.64821596086025,8.5237458729744,-2.89518451094627,11.8123471183092
8.58229874999961,7.5834024989605,8.04944137394428,-2.40739223957062,11.3179961693292
8.59223075000045,7.78308959126473,7.67328238964081,-2.39965520381927,11.1899102460226
8.6021627500013,7.8500378715992,7.26871529281139,-2.28213318586349,10.9391703740051
8.61209475000032,7.89788212895393,6.88520460426807,-1.45287039086223,10.5779684693295
8.62202675000117,7.95592743873596,6.88237396717072,-0.517922827452421,10.5324307208553
8.63195875000019,8.26478789448738,7.35546458423138,0.446670119315386,11.0728990055105
8.64189075000104,8.74146928668022,8.22858544349671,0.9728961391747,12.0444771820333
8.65182275000007,8.98649159610272,9.05582495570183,1.17868304684758,12.812271092982
8.66175475000091,9.09374765753746,9.56575186192989,1.35852834373713,13.2682121781241
8.67168674999994,8.9114478456974,9.87321074008942,1.51481944799423,13.3861447394245
8.68161875000078,8.49150198698044,10.0513449954987,1.70185784339905,13.2676848897073
8.69155074999981,7.99387119054794,10.1403384482861,1.89529192328453,13.0506923927939
8.70148275000065,7.42647141695023,10.2113891351223,1.99708727002144,12.7833212953346
8.71141474999968,7.07876556873322,10.3178552377224,1.95368031844497,12.6642775344809
8.72134675000052,6.9334529042244,10.4027497923374,1.96740621864796,12.6554596773981
8.73127875000137,6.59338059604168,10.3742282438278,1.97671790957451,12.450088073316
8.74121175000073,6.1446038711071,10.2352726721764,2.1540689304471,12.1308275218034
8.75114374999976,5.62359356760979,10.0595381140709,2.44342249006033,11.7808923748178
8.7610757500006,4.90012429922819,9.61395104527474,2.93234239697456,11.1820349123905
8.77100774999963,4.10681559473276,8.87553483188152,3.69068650603294,10.4528570145629
8.78093975000047,3.37547480463982,8.00442833840847,4.59987796157599,9.82972941859883
8.79087175000132,2.77463538944721,6.45441040635109,5.82191241145134,9.12429062254142
8.80080375000034,2.70637850224972,2.75400816679001,8.78701909661293,9.59795552106936
8.81073575000119,2.60180631279945,-7.56833130061627,11.4867721188068,13.9998203015113
8.82066775000021,1.53782020166516,-28.7611182904243,10.6964706373215,30.7242786796291
8.83059975000106,-2.1169313634932,-62.9235061454773,-0.251751723736525,62.9596092980894
8.84053175000008,-6.21738007128239,-85.246519575119,-19.1602486360073,87.5941781308299
8.85046375000093,-3.56967954754829,-69.1035312795639,-40.1285148239136,79.9896140092631
8.86039574999995,-9.57716971993446,-54.6225836277008,-18.2284386885166,58.3748644455009
8.8703277500008,-6.78740699887276,-40.117218003273,1.54426251769066,40.7166405885115
8.88025974999982,1.72195560067892,-23.0984711694717,1.25045162558556,23.1962956250682
8.89019175000067,5.82125343024731,-17.0779884839058,3.61037266016006,18.4005291473049
8.90012374999969,8.10094715774059,-14.6539410352707,6.89091908812523,18.1065761146823
8.91005575000054,7.44461181879044,-13.4999415707588,10.8811806714535,18.8698373165003
8.91998775000138,-7.91624823331833,-15.780360352993,72.9118930006027,75.018870292035
8.92991975000041,-17.5485419940949,-14.1518686938286,69.2836722993851,72.8591377998289
8.93985175000125,0.168003442659974,-6.55563097178936,-1.05876834824681,6.64270374247405
8.94978375000028,0.531624461710453,-5.47178347706795,1.42204518556595,5.67849024812001
8.95971575000112,1.14148605756462,-4.23600485444069,-1.02791478395462,4.5059223639042
8.96964775000015,2.0489976811409,-2.97358222424984,-2.57404490232468,4.43466908583708
8.97957975000099,3.04571698486805,-1.82224499702454,-3.64166929721832,5.08514739721449
8.98951175000002,3.85197084009647,-0.477231615185738,-4.25418150901794,5.75877501550082
8.99944375000086,4.60225865542889,1.28640381574631,-4.44359036564827,6.52542066431881
9.00937574999989,5.14036270916462,3.18437200963497,-4.50624912858009,7.54120912628378
9.01930775000074,5.42089398980141,4.97735929369927,-4.57104387938976,8.66340806695299
9.02923974999976,5.64322851777077,6.84629489243031,-4.44793543159962,9.92481291821553
9.03917175000061,5.7293275988102,8.47598289191723,-4.39996662855148,11.136749393379
9.04910374999963,5.76340867996216,9.73442181408405,-4.62783262252808,12.2226299317665
9.05903575000048,5.64983119368553,10.5119208168983,-5.07196841239929,12.9671097533051
9.06896775000132,5.49999044537544,11.0416025412083,-5.58651988148689,13.5416426611946
9.07889975000035,5.50122654676437,11.4467432498932,-6.16923643648624,14.1191679201386
9.08883175000119,5.59571872115135,11.6030112576485,-6.00026184439659,14.2107382092797
9.09876475000056,5.71545215606689,11.5499735033512,-4.85834331214428,13.7721378520207
9.10869674999958,5.70550545752049,11.4363866615295,-4.36191294908524,13.5044443415197
9.11862875000043,5.75479222297669,11.3862538039684,-3.97111779928207,13.3616685258164
9.12856075000127,5.79649690389633,11.273117197752,-3.39071849584579,13.1217193854008
9.1384927500003,5.7581754219532,11.0769688403606,-3.02227023482323,12.8448409975603
9.14842475000114,5.56358593225479,10.9422899222374,-2.55120918631554,12.5377775335273
9.15835675000017,5.33162337899208,10.8236744749546,-2.0110878431797,12.2320321822739
9.16828875000101,5.17860057592392,10.6013481330872,-1.3992096157372,11.8812572446119
9.17822075000004,5.00836824774742,10.2544515395165,-0.690565377920866,11.4330402528163
9.18815275000088,4.74503041237593,9.86967200517655,0.0583916111290455,10.9512167672998
9.19808474999991,4.64730238884687,9.43772005856037,0.825932367146015,10.5522577523596
9.20801675000075,5.0376405787468,9.21782966673374,1.45202137514949,10.6044600258308
9.21794874999978,5.68674700498581,9.23660332202912,1.79191329672933,10.9938567250183
9.22788075000062,6.68924628138542,9.49404570221901,1.89027281954885,11.7667349312023
9.23781274999965,8.05054825186729,9.87103908419609,1.83410695105791,12.8690593310191
9.24774475000049,9.14469210863114,10.1406998062134,1.69347892954946,13.7596168989629
9.25767675000134,9.8604965543747,10.3349840712547,1.68634883478284,14.3834995896165
9.26760875000036,10.1481339561939,10.2832876682282,1.75304758518934,14.5534808171903
9.27754075000121,9.98416984319687,10.0970094108582,1.7219778200984,14.3037915992114
9.28747275000023,9.54212501764298,9.96960793733597,1.68502283245325,13.9026808286175
9.29740475000108,9.28610351085663,10.0274181890488,1.64694079399109,13.7656546495734
9.3073367500001,8.82654685914516,10.0638182759285,1.68873332932591,13.4922269475863
9.31726875000095,7.72694462656975,9.8963586974144,1.94692371457815,12.7056719885393
9.32720074999997,6.44615881562233,9.52687898755074,2.15489221841097,11.7029033659443
9.33713275000082,5.33526034712792,9.04873286783695,2.28288659960032,10.7497042150816
9.34706474999985,4.14492920815945,8.38209298074245,2.57342860579491,9.69858008512528
9.35699675000069,3.06493970632553,7.62882016181946,2.84532179474831,8.69992003299247
9.36692874999972,2.30126483693719,6.33748363494873,3.00515777349472,7.38176753335963
9.37686075000056,1.94584168732166,2.31006591975689,3.68383356928825,4.76375211277372
9.38679274999959,0.467430658489466,-11.1438785290718,4.86810728520155,12.1697571311607
9.39672475000043,-1.02193936809897,-36.3918516612053,3.98190328091383,36.6233092598388
9.40665675000128,-2.60173614621162,-62.2973488712311,-1.355976472646,62.3663962366974
9.4165887500003,-4.09417829990387,-79.6971376991272,-9.98858682990074,80.4249210148416
9.42652075000115,-4.65298500537872,-70.5461189031601,-25.3293991184235,75.0998243770215
9.43645275000017,-6.98115741312504,-43.9265386676788,-22.6779581308365,49.9256161016956
9.44638475000102,-3.94018690556288,-30.3200234055519,-0.630120517015457,30.5814640596219
9.45631675000004,1.43575383648276,-18.555329618454,0.532179654836655,18.6184011535221
9.46624875000089,4.69071796506643,-13.3037324023247,2.41048424720764,14.3109246789471
9.47618024999974,6.84131949663162,-11.7822424507141,4.81483008742333,14.4501722617123
9.48611225000059,3.87621924340725,-13.7315661549568,27.2391956448555,30.749874212257
9.49604424999961,-20.6608979415894,-21.6655922627449,123.5830078125,127.157502381231
9.50597625000046,1.49397105440497,-5.43569913983345,9.73958081245423,11.2533643437202
9.5159082500013,4.61408874213696,-2.36782120764256,-2.85036911129951,5.9178540250945
9.52584025000033,1.54971153795719,-2.25884489536285,-0.381113330125809,2.76572476623833
9.53577324999969,-0.18272746257484,-2.23584779620171,-3.31866501152515,4.00573865249349
9.54570525000054,-1.54708204507828,-2.26320165574551,-3.83730719268322,4.71598039433914
9.55563725000138,-1.89446176484227,-1.75270523071289,-4.19183674156666,4.92264728293281
9.56556925000041,-1.41560053065419,-0.880507646799087,-4.84494383275509,5.12373880296524
9.57550125000125,-0.573155772686005,0.334649015665054,-5.06087916791439,5.10421350020537
9.58543325000028,0.247006708234549,1.70148829936981,-5.11801231205463,5.39908554971562
9.59536525000112,0.894099938124418,3.06005552709103,-5.14316177129746,6.05107160211892
9.60529725000015,1.51465791866183,4.61350869834423,-4.99857416152954,6.968815879945
9.61522925000099,2.1025343491137,6.27987160384655,-5.09542744159699,8.3558852829955
9.62516125000002,2.50590612888336,7.54031495153904,-5.36800650894642,9.58912972981748
9.63509325000086,2.91295478403568,8.5647395324707,-5.21464164376259,10.4418655567751
9.64502524999989,3.18920210212469,9.35648995399475,-4.60223468184471,10.903920321342
9.65495725000073,3.30714775085449,9.92949369907379,-4.0241695868969,11.2127611331926
9.66488924999976,3.54810244470835,10.3520602798462,-3.6637776196003,11.5402534392273
9.67482125000061,3.91126891583204,10.6812772321701,-3.44915732324123,11.8863112058745
9.68475324999963,4.2320155915618,10.9741689419746,-3.31801363170147,12.2209473607564
9.69468525000048,4.48651945352554,11.243202842474,-3.02060143947601,12.4764778691762
9.70461725000132,4.67340289771557,11.355896229744,-2.81473851799965,12.5984057225428
9.71454925000035,4.92084829330444,11.34081392169,-2.67735116958618,12.6489927511007
9.72448125000119,5.17348309278488,11.3094015097618,-2.65691573560238,12.7171809394388
9.73441325000022,5.06158492684364,11.0205981731415,-2.17388017416,12.3206729149469
9.74434525000106,4.86085030585527,10.6371120429039,-1.6224234187603,11.8071281884701
9.75427725000009,4.68485437721014,10.2129222750664,-1.29719192862511,11.3108067277229
9.76420925000093,4.60276473194361,9.95549509763718,-0.830954759940505,10.9994459692191
9.77414124999996,4.745692024827,9.86294419884682,-0.404542026892304,10.9527583427918
9.7840732500008,4.93872323155403,9.8747403717041,0.0964136425405741,11.0413214859872
9.79400524999983,5.16414275050163,9.98253028392792,0.449688159674406,11.2481776594277
9.80393725000067,5.53658582925797,10.1356361174583,0.667666804343462,11.56852112899
9.8138692499997,5.90729111552239,10.2691631340981,0.915254287272692,11.8823183852571
9.82380125000054,6.51703642487526,10.4567242705822,1.15133444979787,12.3749916060345
9.83373325000139,7.35598498642445,10.7558420956135,1.16969573020935,13.0830746542066
9.84366525000041,8.10181371510029,11.0061918032169,1.11363496541977,13.7118863151498
9.85359725000126,8.91326866865158,11.2386946392059,1.02421349644661,14.3806685810913
9.86352925000028,9.32513250589371,11.2819780683517,1.09559879019856,14.6779243115752
9.87346125000113,9.27038853406906,11.1800458967686,1.45366458892822,14.5961183389131
9.88339325000015,8.1538428246975,10.7320708250999,1.95622780412436,13.619446546261
9.893325250001,6.55973805606365,9.94187693238258,2.48716141730547,12.1678696664019
9.90325725000002,5.09222082853317,9.11210031330586,2.86258745312691,10.8238390607536
9.91318925000087,3.93234695881605,8.31020321846008,3.19058964639902,9.73153083683769
9.92312124999989,3.14214078694582,7.33902396798134,3.51954873651266,8.72476617659642
9.93305325000074,2.33193377539515,5.69870865404606,3.88945675492287,7.28292999451068
9.94298524999977,1.33529136255384,2.39237600505352,4.35707525521517,5.14689913948924
9.95291725000061,0.409928555041552,-6.68229511141777,4.01022719353438,7.80403943609198
9.96284924999964,-0.535558029860258,-25.4175821471214,3.57975313067436,25.674012874609
9.97278125000048,1.2043204562366,-45.3809563779831,1.98571560502052,45.4403417241303
9.98271325000133,1.82391832396388,-65.8746894407272,-2.80080694198608,65.9594262140828
9.99264525000035,-0.021319240629673,-68.2648347330093,-11.9200040209293,69.2977244322934
10.0025772500012,-5.18871918261051,-58.4251402330399,-20.9691935563087,62.2906646007915
10.0125092500002,-12.6376187646389,-42.2893650627136,-17.4861381697655,47.4748863457296
10.0224412500011,-9.94352935552597,-32.9724911642075,-2.14660291314125,34.5060408288846
10.0323732500001,-3.18751225680113,-22.2123934650421,0.688263036757708,22.4504869399501
10.0423052500009,1.25262269675732,-14.4678838026524,1.99430998876691,14.6583081451707
10.05223725,3.19792439371347,-11.3183337163925,7.5688370847702,13.9863752759365
10.0621692500008,-11.0167600607872,-14.7425357079506,66.3345191574097,68.8402483521225
10.0721012499998,-8.57014119029045,-6.37268270373344,54.008850517273,55.0546486598644
10.082034250001,1.63373514980078,-0.0618518471717835,14.2547422671318,14.3481912899517
10.09196625,1.21519145339727,-0.178462868928909,6.33488630175591,6.45285392056652
10.1018982500009,-0.196865956932306,-0.635448499917984,0.744099122285843,0.998115476702696
10.1118302499999,-1.45714836001396,-1.36673227965832,0.00526483297348022,1.99781535328409
10.1217622500008,-1.91366533666849,-1.63701046764851,-0.576740700602531,2.58351468501513
10.1316942499998,-1.38684582442045,-1.20693547725677,-1.33639634013176,2.27288137941491
10.1416262500006,-0.542189649492502,-0.21052432179451,-2.12357482373714,2.20178567033535
10.1515582499997,0.273073887974024,0.975741248130798,-3.17778336703777,3.3354081398562
10.1614902500005,1.08283285662532,2.28845344126225,-3.96099802315235,4.70096282559533
10.1714222500013,1.67918073311448,3.81058600187302,-4.18817463040352,5.90601560672583
10.1813542500004,2.23868311107159,5.4352255153656,-4.42681821227074,7.3586750138303
10.1912862500012,2.70344407707453,6.86388097822666,-4.77144199311733,8.78567758655043
10.2012182500002,2.97635965168476,7.98171307504177,-4.96785405993462,9.86134039313514
10.2111502500011,3.20153534173965,8.94262169122696,-5.21076201617718,10.8338521332925
10.2210822500001,3.40148643583059,9.63172775030136,-5.13401906490326,11.4323418942864
10.231014250001,3.66466318041086,10.2703559660912,-5.19315546512604,12.0780309480085
10.24094625,3.87012118220329,10.7179907298088,-5.49422742962837,12.6506797563485
10.2508782500008,4.39939652502537,11.026347155571,-6.30794057786465,13.4434049151785
10.2608102499999,5.03891878008843,11.3059247553349,-6.62329612076283,14.038614196171
10.2707422500007,5.15168935060501,11.2108572149277,-5.91848970293999,13.6839958719096
10.2806742499997,5.17563019037247,10.8741581654549,-5.07857167303562,13.0700556201182
10.2906062500006,5.26176435470581,10.6094862878323,-4.80609960973263,12.7806868702283
10.3005382499996,4.95621927022934,10.2846173250675,-4.80590431272984,12.3868550988855
10.3104702500004,4.75999840736389,10.0009840965271,-4.47611725687981,11.9462501829834
10.3204022500013,4.77951378196478,9.80096078932285,-4.16013079941273,11.6708728317148
10.3303342500003,5.00740345716477,9.61342655003071,-3.88969590604305,11.5161535964552
10.3402662500012,5.20507209062576,9.23552801907063,-3.14230363190174,11.0572069427461
10.3501982500002,5.5025620508194,9.04677171170712,-2.14562642812729,10.8039798359651
10.360130250001,6.07359528422356,9.08226255655289,-1.40582734823227,11.0160066882579
10.37006225,6.6727851998806,9.18502912580967,-0.591086844205856,11.3683862541308
10.3799942500009,7.3299678003788,9.50662774085999,0.0993570578098297,12.0047603384164
10.3899262499999,7.8352151799202,9.96421797394753,0.511260656118393,12.6861193517358
10.3998582500008,8.13147196233273,10.3116490030289,0.782192562818527,13.155332251266
10.4097902499998,8.32141116142273,10.6411770272255,1.04378631994128,13.5488015013838
10.4197222500006,8.40116250514984,10.9210797321796,1.28930169582367,13.8387793109585
10.4296542499997,8.47766981363297,11.0638184523582,1.41579071134329,14.0101187558868
10.4395862500005,9.0619043058157,11.3068451070786,1.25421577066183,14.5442742384281
10.4495182500013,8.97230215787888,11.2312429475784,1.47792059361935,14.4508571870617
10.4594502500004,7.79934602022171,10.8522007012367,2.01693885952234,13.5154763425535
10.4693822500012,6.48642742037773,10.4197862398624,2.46568167060614,12.5189964479993
10.4793142500002,5.09054267764092,9.72658362150192,2.86561748027802,11.3460044615815
10.4892462500011,3.51681691735983,8.72946612238884,3.2520058760047,9.95726479660614
10.4991782500001,2.29658019393682,7.92971904873848,3.36975827425718,8.91683775819845
10.509110250001,1.90019598305225,7.03134698867798,3.69003541857004,8.16498295402386
10.51904225,1.43903251647949,4.76845231175423,4.264857647717,6.55728318652243
10.5289742500008,0.301570147275925,-3.12588581979275,4.63343425512314,5.59739401048898
10.5389062499999,-1.88842407613993,-23.7273111462593,3.8383927282691,24.1098465042641
10.5488382500007,-2.33252565979958,-51.0435824489594,0.276739361286163,51.0975984744041
10.5587702499997,1.66474863544107,-73.1122139310837,-4.12782902598381,73.247567784818
10.5687022500006,9.07894835472107,-67.7446570730209,-17.0706654310226,70.4497940623449
10.5786342499996,-22.0501028251648,-57.9827118301392,-25.5657622861862,67.0955297098926
10.5885662500004,-43.9343505477905,-50.8454226493836,-2.24575648784637,67.2348688156175
10.5984982500013,4.41714867174625,-18.8760014498234,0.798058470860124,19.4023588886753
10.6084302500003,6.75497249364853,-10.6826431417465,-1.14602269291878,12.6910159521032
10.6183622500012,6.4698488098383,-8.40798211276531,0.489573333263397,10.6203949493129
10.6282942500002,6.70857366800308,-8.35314049243927,2.46463998913765,10.9933783261338
10.638226250001,5.92274355232716,-9.54932177066803,5.29472393989563,12.4218573114527
10.6481582500001,3.83069399178028,-10.7459006595612,14.1834705555439,18.2021821341234
10.6580902500009,-7.3991836309433,-12.7172695362568,71.2347618627548,72.7383541228808
10.6680222499999,-3.04279279232025,-5.40355114817619,37.6606951189041,38.1678517842831
10.6779542500008,4.62554343760014,-1.04444076955318,-3.4180706012249,5.84548674185379
10.6878862499998,3.02511373579502,-0.105505405068398,0.852210558280349,3.14463151110569
10.6978182500006,2.91627483308315,0.948009658455849,-0.927099430561066,3.20357527908217
10.7077502499997,2.23773878574371,1.54703409790993,-1.85714819669724,3.2939017589803
10.7176822500005,1.75886790364981,2.30233999371529,-2.63859933257103,3.91874880376309
10.7276142500014,1.79766213297844,3.22176319956779,-3.21298126637936,4.89229965113939
10.7375462500004,1.66273105368018,4.12463001430035,-3.46532370507717,5.63788219925793
10.7474782500012,1.30628493368626,4.9946378159523,-3.69341189324856,6.34776170423137
10.7574102500002,1.19888883143663,5.94090792775154,-4.02854973614216,7.27742635914206
10.7673422500011,1.17236249908805,6.87031993210316,-4.30710875093937,8.19310170760381
10.7772742500001,1.5151514236629,7.95848851919174,-5.48506542742252,9.78361722931965
10.787206250001,1.94799624010921,9.15846288621426,-7.1457506865263,11.7785349115938
10.79713825,2.30279344528914,10.0211780405045,-7.06883465766907,12.4777918875344
10.8070702500008,2.8250395578146,10.5712583613396,-6.17094908595085,12.5623630128574
10.8170022499999,3.2155093100667,11.0028881263733,-5.62591725111008,12.7692596559452
10.8269342500007,3.53827707588673,11.2043855166435,-5.5470570230484,12.9933637326239
10.8368662499997,3.6923781055212,11.3795564031601,-5.74059167504311,13.2696025858504
10.8467982500006,3.64007885456085,11.414452586174,-5.70591710150242,13.2701692483048
10.8567302499996,3.5545741429925,11.4164008784294,-5.61954437077045,13.2116798814569
10.8666622500004,3.31252894341946,11.2549370348454,-5.12109145581722,12.801251241897
10.8765942500013,3.02747191786766,11.0658123528957,-4.11417402327061,12.1878717230176
10.8865262500003,2.83157352894545,10.8834482216835,-3.45619970977306,11.7648871765829
10.8964582500012,2.6661724627018,10.7076926136017,-2.9430609279871,11.4203662084057
10.9063902500002,2.66803597033024,10.5979602563381,-2.2947988396883,11.1669726984771
10.916322250001,2.83021434366703,10.5263938450813,-1.58996201634407,11.0155825913241
10.9262542500001,3.07410521686077,10.4423401200771,-0.943517242670059,10.9262443160914
10.9361862500009,3.54536448597908,10.4646799921989,-0.548327325582504,11.0625403743241
10.9461182499999,4.18932945549488,10.6627976918221,-0.448810090608895,11.4650410553489
10.9560502500008,5.00024120271206,10.932060803175,-0.477356160879135,12.030803563933
10.9659822499998,6.01376657366753,11.3089080047607,-0.610631820335984,12.8230129019162
10.9759142500006,7.15477469444275,11.7074483764172,-0.601448110342026,13.7337863768207
10.9858462499997,8.12654977619648,12.0572814416885,-0.546580177545548,14.5505187852383
10.9957782500005,8.96516095340252,12.2771811890602,-0.557132062911987,15.2122873035238
11.0057102500014,9.51616104125977,12.4050036621094,-0.46434625223279,15.6415170064192
11.0156422500004,9.51100964426994,12.2402221083641,-0.0388499240577221,15.5010919303151
11.0255742500012,8.91644838452339,11.8460893678665,0.536286739110947,14.8364580871546
11.0355062500003,8.17116110801697,11.3575147390366,0.830579587966204,14.0160935125501
11.0454382500011,7.35621361255646,10.6726490807533,1.10974188923836,13.0096442755056
11.0553702500001,6.28892075479031,9.69836320459843,1.67960334062576,11.6803185097917
11.065302250001,5.01884411931038,8.37455533504486,2.5198213326931,10.0832273058957
11.07523425,4.36274734675884,6.75573029279709,3.2613251683116,8.67811604290529
11.0851662500008,2.8786082392931,3.12935789644718,4.56952769637108,6.2417825664857
11.0950982499999,0.810217536538839,-6.95634007573128,6.46108324885368,9.52852121025911
11.1050302500007,-0.385425213128328,-25.8042327904701,3.88389488339424,26.0977321230207
11.1149622499997,-0.797572640329599,-48.5500303173065,-1.91677810192108,48.5943988976095
11.1248942500006,-0.479612309038639,-66.4559167098999,-9.55965380072594,67.1416850735061
11.1348262499996,-1.56480437099934,-68.2458289432526,-16.5134655404091,70.2327297278517
11.1447582500005,-3.28654976427555,-56.9165352058411,-20.7151484084129,60.6581467139689
11.1546902500013,-9.46809342026711,-44.5357109498978,-10.5712326335907,46.7421148668012
11.1646222500003,-7.60814148366451,-31.9376181936264,-0.946869451403618,32.8449666535881
11.1745542500012,-4.12159881770611,-22.2976949858665,7.61016052722931,23.9183887782403
11.1844862500002,-6.11750027239323,-18.2194854319096,29.7601548457146,35.426547608075
11.194418250001,-0.160420773401856,-9.6104637658596,28.0869834423065,29.6861143888492
11.2043502500001,4.77932520925999,-1.89701334357262,22.0386305880547,22.6305511925428
11.2142822500009,-2.69587631821632,-3.98092825770378,39.483543548584,39.7751901324058
11.2242142499999,-2.67063564240932,-2.79327105045319,25.5858603358269,25.8760682295484
11.2341462500008,-0.0806183396279812,-2.26683686971664,8.65070997476578,8.94314440105399
11.2440782499998,-0.169836033135653,-2.98525969862938,5.52101586341858,6.27871291830831
11.2540102500006,-0.506080607771873,-3.23597485721111,3.71969571232796,4.95618674490542
11.2639422499997,-0.289128880351782,-2.85845288693905,1.92356671929359,3.45752184951557
11.2738742500005,0.676064136922359,-1.99950743257999,0.303611391987652,2.13243348489933
11.2838062500014,1.73941816404462,-0.823527699708939,-0.960378858447075,2.15083727263323
11.2937382500004,2.77947717636824,0.527274425625801,-2.23918772578239,3.60797358155038
11.3036702500012,3.59417762696743,2.02853944301605,-3.35353605151176,5.31782748261489
11.3136022500003,4.27008184254169,3.71063779056072,-4.0827200961113,6.97646293890627
11.3235342500011,4.79185754656792,5.42460989534855,-4.77152443885803,8.66924083953911
11.3334662500001,5.24392917752266,7.05486039698124,-5.5231775790453,10.381490211402
11.343398250001,5.58710986554623,8.3466775649786,-6.01613118767738,11.7079740984829
11.35333025,5.85482171058655,9.11699618697167,-6.37595071256161,12.5718456968349
11.3632622500008,6.27381564259529,9.65655268907547,-6.49232316792011,13.2196835314192
11.3731942499999,6.67445984244347,10.1539928662777,-6.54681687891483,13.8026373046187
11.3831262500007,6.5906411755085,10.3860279250145,-6.32436657607555,13.8312595143057
11.3930582499997,6.23308043003082,10.4703471136093,-5.92373874843121,13.5488058915303
11.4029902500006,5.73705001652241,10.4820649337769,-5.5949591678381,13.1943547116852
11.4129222499996,5.50410454630852,10.5168582057953,-5.45781213998795,13.0647306414215
11.4228542500005,5.51933537364006,10.5284742844105,-5.71202744185925,13.1885970148746
11.4327862500013,5.72625079393387,10.5362253534794,-6.08661060154438,13.4480043675321
11.4427182500003,5.74229146063328,10.3239538836479,-5.74721306204796,13.137290169252
11.4526502500012,5.47009246230125,9.91773845672608,-5.04179853379726,12.3977086631986
11.4625822500002,5.34716293931007,9.60857511520386,-4.37398511052132,11.8342136617144
11.472514250001,5.42918651103973,9.47894468307495,-3.50582210540772,11.472456019145
11.4824466250011,5.46519483447075,9.46687018275261,-2.75479812562466,11.2729276742451
11.4923786250001,5.66444689393044,9.49698626697064,-2.09793069005013,11.2552218969437
11.502310625001,5.94913554489613,9.49680383384228,-1.31787002205849,11.2835401441688
11.512242625,6.76517530024052,9.55418489992619,-0.677708666324615,11.7264374377461
11.5221746250008,7.71661025762558,9.84561188220978,-0.242034893855453,12.5116237192879
11.5321066249999,8.29203474998474,10.2416250872612,0.133504724130034,13.1782604403744
11.5420386250007,8.46894459843636,10.7608087205887,0.361525011509657,13.6984936130375
11.5519706249997,8.20034514605999,11.1232893133163,0.54741413667798,13.8301441749275
11.5619026250006,8.28207401812077,11.3849650776386,0.625770334750414,14.0926139652137
11.5718346249996,8.9439788299799,11.7060801279545,0.531971640139818,14.7414403332623
11.5817666250005,9.12363277673721,11.8266263258457,0.542413597851992,14.9467045801767
11.5916986250013,7.88435459554195,11.5119981765747,0.98351716786623,13.9877251697762
11.6016306250003,5.65129826009274,10.7375905966759,1.46502806782722,12.2220837456577
11.6115626250012,3.64146581411362,9.84716256380081,1.74781695842743,10.6433898713448
11.6214946250002,2.19194046914577,8.95159716725349,1.9835994976759,9.42710781906306
11.631426625001,1.12494633100927,8.16442160725594,2.40198210328817,8.58445120279657
11.6413586250001,0.737400917485356,7.35934421181679,2.75445284754038,7.89244688486611
11.6512906250009,0.693211827725172,5.91819383382797,3.04582340419292,6.69198035729237
11.6612226249999,0.59257898055017,1.76851259350777,3.66513183474541,4.11241753809723
11.6711546250008,0.932361778467894,-11.225512676239,4.14227954238653,12.0016629321784
11.6810866249998,1.43955145686865,-35.0927710819244,4.7105517205596,35.4367632285652
11.6910186250007,4.49425239622593,-61.025949010849,1.79193434670568,61.217446745014
11.7009506249997,-5.68602136552334,-82.754211730957,-7.39900587558746,83.2786628502658
11.7108826250005,-72.9010218572617,-107.599526882172,-15.9753568089008,130.948192802619
11.7208146250014,-24.1086992955208,-24.8843371295929,-19.454692196846,39.735936689288
11.7307466250004,12.2577029442787,-0.297284722924232,-3.57107235431671,12.7707563376814
11.7406786250012,2.10503315672278,-5.86442166924477,-0.598357856869698,6.25944392342383
11.7506106250003,1.52521258145571,-4.6990955632925,-0.262120737433434,4.94737100009477
11.7605426250011,-0.0568753550201654,-7.68085745751858,1.70797929346561,7.86867201982868
11.7704746250001,-0.464566253721714,-10.6719626176357,3.59171770334244,11.2697401911852
11.780406625001,0.357494964301586,-12.288202021122,4.86977812707424,13.2228004056757
11.790338625,1.49606479614973,-11.6746104133129,5.55824333131313,13.0164821325502
11.8002706250008,2.59248468160629,-8.89797878444195,5.41941581368446,10.736157181895
11.8102026249999,2.24884761840105,-5.80272652745247,4.56008502781391,7.71513617663883
11.8201346250007,0.59008419290185,-3.19386847257614,3.74201278030872,4.95496264595631
11.8300666249997,-0.340641826987267,-0.90181899368763,3.76071860790253,3.88230843693457
11.8399986250006,-0.473032510355115,1.24497980117798,3.63867493808269,3.87475028436996
11.8499306249996,-0.588750077560544,3.20036472916603,2.66885750412941,4.20853435662172
11.8598626250005,-0.49795458599925,4.59454500854015,1.25404006183147,4.78857171627378
11.8697946250013,-0.0749841818958521,5.43843271315098,0.131768758893013,5.44054556169007
11.8797266250003,0.14489926636219,6.07716559410095,-0.739644128680229,6.12372524633559
11.8896586250012,-0.272842630594969,6.74868498265743,-1.50278003096581,6.91935979102731
11.8995906250002,-0.507869709581137,7.46424501478672,-2.10770314157009,7.77272782333608
11.909522625001,-0.525401489362121,8.10480515062809,-2.46023411214352,8.48626332028568
11.9194546250001,-0.628036423176527,8.6615162140131,-2.46091882109642,9.02620708373538
11.9293866250009,-0.772366609275341,9.23000649333,-2.35390015661716,9.5566948257941
11.9393186249999,-0.836164336726069,9.72186725735664,-2.31109970748425,10.027714376946
11.9492506250008,-0.885771968141198,10.2038906657696,-2.31463259518147,10.5005476404424
11.9591826249998,-0.841861132755876,10.6185693526268,-2.21438793003559,10.8796258744535
11.9691146250007,-0.79151331692934,10.9489370369911,-2.09830783545971,11.1762521152318
11.9790466249997,-0.664317957758904,11.201342625618,-2.11510337769985,11.4186276436288
11.9889786250005,-0.623709922134876,11.3620755672455,-2.31498693645,11.6122753919592
11.9989106250014,-0.745291223376989,11.5066514825821,-2.39794021546841,11.7774617225535
12.0088426250004,-0.893780168518424,11.7029495286942,-2.28162272393703,11.9567417349036
12.0187746250012,-1.01592762641609,11.924329791069,-2.10412172198296,12.1510937009478
12.0287066250003,-1.16072507813573,12.0341241288185,-1.9997933614254,12.2542482324795
12.0386386250011,-1.15862015359104,12.0819005584717,-1.70256418704987,12.2561595361732
12.0485706250001,-1.01101070277393,12.1237420642376,-1.36901035487652,12.242608122171
12.058502625001,-0.996889530792832,12.1636984276772,-1.01946789622307,12.246985872757
12.068434625,-0.9672463401407,12.2356402301788,-0.588085504956543,12.2878924916369
12.0783666250009,-0.869688397496939,12.2965705561638,-0.251529091000557,12.3298528878115
12.0882986249999,-0.807973155900836,12.2660878515244,-0.0506246449425817,12.2927740830394
12.0982306250007,-0.717519872635603,12.177453417778,-0.0486576415970922,12.1986709962957
12.1081626249998,-0.531020042337477,12.0886084842682,-0.295437587499619,12.1038721382619
12.1180946250006,-0.266686426140368,11.969532276392,-0.838673669323325,12.0018414457571
12.1280266249996,0.126007935851812,11.7941263318062,-1.48098394989967,11.8874138226261
12.1379586250005,0.492102948389947,11.6409374678135,-2.08711217164993,11.8367912737535
12.1478906250013,0.837113339826465,11.4870001602173,-2.50523194491863,11.7867772746577
12.1578226250003,1.22530830591917,11.3756621575356,-2.68709496974945,11.752767731194
12.1677546250012,1.60324162781239,11.1809054374695,-2.70846888184547,11.6154566764596
12.1776866250002,1.84557845726609,10.7445230555534,-2.69290944099426,11.2295457072243
12.1876186250011,2.02781526535749,10.2308194327354,-2.55209796309471,10.7375465088113
12.1975506250001,2.06927714064717,9.82647979259491,-2.57959917247295,10.3680251200363
12.2074826250009,1.98333388790488,9.36400362610817,-2.28497200906277,9.84069480793298
12.2174146249999,1.77288046360016,8.9423702609539,-1.83395755469799,9.29905862626114
12.2273466250008,1.65736228644848,8.3880179643631,-1.66870120704174,8.71150152599438
12.2372786249998,1.81624896973372,6.57600793361664,-1.70140760779381,7.03117547149169
12.2472106250007,1.80313541918993,-3.13819596290588,-0.880252123475075,3.72483758604565
12.2571426249997,0.0339647215604782,-33.1673484563828,2.81975425958633,33.2870120514576
12.2670746250005,1.90518570452929,-59.8439039611816,-1.18497508943081,59.88594776612
12.2770066250014,-2.43194440573454,-66.6532298326492,-9.83246500253677,67.4184304826407
12.2869386250004,-10.5717425107956,-64.9738112640381,-8.91267634570599,66.4288618714239
12.2968706250012,-14.4512157297134,-62.916199464798,-5.5124853605032,64.7894535091223
12.3068026250003,-10.775679359436,-51.0944766139984,-4.1335429251194,52.3817428426128
12.3167346250011,-6.48162568688393,-33.3642780017853,-3.02858990550041,34.1227032185462
12.3266666250001,-4.54071846485138,-19.7284939169884,-1.0619216054678,20.2721304727907
12.336598625001,-7.32458953142166,-12.6375497674942,18.5956379842758,23.646459100084
12.346530625,-16.6115093135834,-9.10425568878651,59.9442375040054,62.8660585949102
12.3564616250005,1.89744077503681,6.4740886259079,-6.95370473563671,9.68855585633374
12.3663936250014,1.58332323387265,7.27415437281132,-3.48086326539516,8.21806810477916
12.3763256250004,-4.86636159896851,-1.05639715611935,17.3989924371243,18.0975796169123
12.3862576250012,-3.28169131278992,1.45621280550957,14.3407325899601,14.7833238760474
12.3961896250003,-1.17079062134027,2.08845586180687,4.38979948997498,5.0002738052949
12.4061216250011,-0.289225944131613,2.07960610091686,1.04264508962631,2.34425296515784
12.4160536250001,0.548430821299553,2.35839900434017,0.604654723405838,2.49568218408535
12.425985625001,1.23977870285511,2.76554589271545,0.857572528123856,3.14971839340617
12.435917625,1.76108736053109,3.28838695943356,0.870311272144318,3.83045156565339
12.4458496250008,1.95933033674955,3.78787717044354,0.844812149405479,4.34749311611388
12.4557816249999,1.88250084668398,4.50506389796734,0.44853289604187,4.90312063092132
12.4657136250007,1.9512687805295,5.33479666292667,-0.180998258180916,5.68333226708655
12.4756458749998,2.21635581046343,6.22095915198326,-0.654912711381912,6.63637525376232
12.4855778750007,2.55145593881607,7.12582512974739,-1.03303862594068,7.63901040646919
12.4955098749997,2.95897003233433,7.99700939118862,-1.31955518960953,8.62837694780641
12.5054418750005,3.6963436871767,8.86133603811264,-1.61434139728546,9.73613533087305
12.5153738750014,4.59969552844763,9.69119042515755,-1.98857138514519,10.9101231416013
12.5253058750004,5.10538291096687,10.3088750839233,-2.42933625519276,11.7575301319759
12.5352378750013,5.48056248664856,10.7943857717514,-2.71747768700123,12.4072565194244
12.5451698750003,5.73776922404766,11.0861290884018,-2.70400394797325,12.7724661355508
12.5551018750011,5.7889060485363,11.2172622549534,-2.55148108184338,12.8782165475731
12.5650338750002,5.93810945034027,11.3024444925785,-2.48985610663891,13.0079121608276
12.574965875001,5.90560477852821,11.2607550144196,-2.20382201135159,12.9049448953751
12.584897875,5.83538205742836,11.0414201080799,-1.85049348056316,12.6249343713492
12.5948298750009,5.71418623387814,10.6994421923161,-1.42960797429085,12.2136712950002
12.6047618749999,5.47525906205177,10.3182306289673,-1.01533625364304,11.7249841286503
12.6146938750007,5.34483340859413,10.1265378499031,-0.984334316253662,11.492733662506
12.6246258749998,5.73422288775444,10.0414819121361,-1.7296145761013,11.6920587451511
12.6345578750006,6.12272359013558,10.0291583204269,-2.4341222012043,11.9998629853756
12.6444898749996,6.13114475011826,10.0477969050407,-1.83680807232857,11.9131449452452
12.6544218750005,6.71234629154205,10.1897953677177,-2.28452937483788,12.4139678120268
12.6643538750013,7.29175156831741,10.4578750026226,-2.16825281381607,12.9320574839876
12.6742858750004,7.79152127623558,10.8352928924561,-1.71273483395576,13.4552902783547
12.6842178750012,8.13320332288742,11.1528762245178,-1.35596930980682,13.8699061691123
12.6941498750002,8.33970826864243,11.3824437582493,-1.02355268798769,14.1477355085843
12.7040818750011,8.94897001326084,11.6096700668335,-0.661259279251099,14.6733011689043
12.7140138750001,10.2965982699394,11.957523264885,-0.522333089858294,15.7884492721592
12.7239458750009,10.9327180302143,12.0871934580803,-0.284616730213165,16.3004777814747
12.733877875,9.14245087087154,11.6617079472542,0.524471855163574,14.8275052149783
12.7438098750008,6.78461553812027,11.0083330535889,1.09628525331616,12.9775285002761
12.7537418749998,5.35052333414555,10.4316584265232,1.21400812312961,11.786492828654
12.7636738750007,4.08310338109732,9.7715031015873,1.46155686825514,10.6906573494899
12.7736058749997,2.73429895699024,8.73481632471085,1.65089351177216,9.30047613834068
12.7835378750005,2.16139636874199,7.69918263137341,1.66360448151827,8.16802468929794
12.7934698750014,2.48898370206356,6.49541225194931,1.72207166790962,7.16595778813469
12.8034018750004,3.10007328629494,4.3527456843853,1.72002748131752,5.61385285787059
12.8133338750013,4.36776718139648,-1.62081368029118,1.50358153805137,4.8954248619167
12.8232658750003,5.02570348799229,-17.3063035440445,1.63328637599945,18.0951226106332
12.8331978750011,6.46746490001679,-40.7957101964951,0.0627537801861763,41.3052298227027
12.8431298750002,-12.4286544799805,-81.0786055469513,-0.154697372540832,82.0258231345345
12.853061875001,-52.8391781759262,-116.350535316467,17.8696851110458,129.030040938937
12.862993875,1.85833342730999,-45.187956161499,-13.7687930381298,47.2756221207872
12.8729248750005,9.53822200119495,-29.859938750267,-15.1310364103317,34.8072102295568
12.8828578749999,6.36768333435059,-21.304068274498,-11.2408218562603,24.9151919939465
12.8927888750004,0.602702703550458,-16.0959509539604,-6.76821351349354,17.4714510509403
12.9027208750013,-1.1802541206032,-11.4092649364471,-3.04744629889727,11.8680771451784
12.9126528750003,-0.892785703316331,-8.60992506086826,-0.655448901057243,8.68086914586959
12.9225848750011,-0.508163020536304,-7.37678002417088,1.34974377930164,7.51644340431101
12.9325168750001,0.569311886206269,-6.67033580124378,2.76390516400337,7.24269752790594
12.942448875001,1.53387362346053,-6.7092952144146,4.28789830863476,8.10885210569951
12.952380875,1.47706909283996,-7.50527902007103,16.4908941185474,18.1785735167335
12.9623128750009,-0.617160309702158,-9.91335070610046,71.7195989513397,72.4041178581096
12.9722448749999,4.36429510474205,-2.09686415791512,16.2998924803734,17.0038350359487
12.9821768750007,3.48619680315256,0.520448386073112,-6.10017204880715,7.04531998548861
12.9921088749998,1.61479879572988,1.13865461647511,-0.957319010496139,2.19557946204824
13.0020408750006,0.450872805565596,2.21632686674595,-1.83072053611279,2.909798747062
13.0119728749996,-0.615465201884508,3.07676453053951,-1.94102533578873,3.68956050841974
13.0219048750005,-1.22522761434317,3.72385015904903,-2.22903286635876,4.5096374835796
13.0318368750013,-1.38048610031605,4.54571666479111,-2.01364483058453,5.15984954949901
13.0417688750003,-1.40978752121329,5.49668326020241,-2.05194175422192,6.03419362306824
13.0517008750012,-1.34271805733442,6.38239785254002,-2.44853909611702,6.96658006735105
13.0616328750002,-1.08793572172523,7.32341774940491,-2.69568336009979,7.8792614149312
13.0715648750011,-0.614859941974282,8.25920789659023,-2.83574230134487,8.75408488803826
13.0814968750001,-0.0209818562865257,9.12883621394634,-2.9577070337534,9.59604719438508
13.0914288750009,0.475376878380776,9.84912488937378,-2.95223637878895,10.2930531864567
13.101360875,0.849945858567953,10.3844901072979,-2.9181751781702,10.8201566126167
13.1112928750008,1.19119725778699,10.8153223121166,-2.85211158156395,11.2483193453786
13.1212248749998,1.45322063907981,11.1421851754189,-2.80075607120991,11.5803443506482
13.1311568750007,1.57766371384263,11.3813573455811,-2.81154886186123,11.829164164235
13.1410888749997,1.56507816687226,11.5664287376404,-2.79363854795694,12.0015065615932
13.1510208750005,1.55715489730239,11.6563238310814,-2.76446240365505,12.0804333121975
13.1609528750014,1.62490219965577,11.7038780665398,-2.78978552520275,12.1410037571655
13.1708848750004,1.71525586098433,11.7092013716698,-2.9852374792099,12.2048819018552
13.1808168750013,1.72302037864923,11.5669678509235,-3.27859521210194,12.1454819193953
13.1907488750003,1.81292146548629,11.4171224248409,-3.34181413829327,12.03349867822
13.2006808750011,1.92869428887963,11.3125613451004,-3.21934596061707,11.9188126195841
13.2106128750002,1.9721769618988,11.1086081242561,-2.96558557212353,11.665562747374
13.220544875001,1.8719461838901,10.8952525806427,-2.74986132144928,11.3917710913881
13.230476875,1.8293069717288,10.770615670681,-2.55087940335274,11.2187125666354
13.2404088750009,1.93260344490409,10.7611548757553,-2.34962584197521,11.1829402185885
13.2503408749999,2.02822296246886,10.8084693753719,-2.12989274024963,11.2014794428596
13.2602728750007,2.07864993497729,10.8138628470898,-1.85354163408279,11.1667377428293
13.2702048749998,2.18503593072295,10.8202515149117,-1.58903698682785,11.1524554879186
13.2801368750006,2.21033727139235,10.8978253555298,-1.51046678066254,11.2218402335989
13.2900678750011,2.48348410338163,11.0504669201374,-1.49270410895348,11.4240394782969
13.2999998750001,3.00789456278086,11.1766276144981,-1.57721917927265,11.6812694033412
13.309931875001,3.83244757175446,11.3572364115715,-2.04723357617855,12.1600015877468
13.319863875,5.40798684597015,11.7423854899406,-2.95683638334274,13.2617050230509
13.3297958750009,7.2101343780756,12.2930973100662,-3.54853016853333,14.6866723794621
13.3397278749999,7.78633947372437,12.3985155916214,-3.3918692278862,15.0284745777753
13.3496598750007,7.43827226758003,11.904210691452,-2.65004818081856,14.2849879899771
13.3595918749998,6.24988825142384,11.1260608935356,-2.36607581377029,12.9787768652696
13.3695238750006,5.15305701434612,10.1230178260803,-2.48781016588211,11.6283569742981
13.3794558749996,3.4563488137722,8.72743129134178,-1.83439448788762,9.56448677163331
13.3893878750005,2.07097049430013,7.25334997951985,-1.42581532403827,7.67678018780821
13.3993198750013,1.17346447996795,4.23602239608765,-1.92571761757135,4.79888455461551
13.4092518750003,-0.20898434791714,-4.18162282526493,-4.44171691775322,6.1039735490831
13.4191838750012,1.99651804357767,-18.1641906523705,-6.227982827425,19.305742059105
13.4291158750002,9.48695712268353,-35.7951900815964,-6.57587461709976,37.6103724443812
13.4390478750011,13.7648952841759,-57.6605396032333,-11.2621758878231,60.3410869577988
13.4489798750001,4.93341746807098,-72.2945112276077,-15.392998688221,74.0795475834494
13.4589118750009,-5.41358380079269,-68.2769548416138,-9.61228692770004,69.1624573883289
13.4688438749999,-8.37611420273781,-54.5425188732147,3.49075324594975,55.2922328396711
13.4787751250005,-13.0418671882153,-44.5907496213913,24.7652878189087,52.6473620640773
13.4887071250014,-8.55735742270947,-28.5614943480492,12.5709686923027,32.3576355643687
13.4986391250004,-1.8391411113739,0.561227452754974,18.6633241832256,18.7621183731861
13.5085711250013,-9.4948450165987,0.335123224854469,46.4921659183502,47.452986009781
13.5185031250003,-5.6032873570919,-1.16201424300671,12.8475069093704,14.0643357501667
13.5284351250011,-3.55878910839558,-1.37662576854229,0.665913078188896,3.87343757563648
13.5383671250002,-3.10763490557671,-0.653040432929993,3.77041913866997,4.92949459829798
13.548299125001,-1.84134492695332,0.355907737612724,4.00678230643272,4.42397173463525
13.558231125,-0.637835333347321,1.35026008844376,3.19575946211815,3.52745159550462
13.5681631250009,0.150053294599056,2.05104303717613,2.44009907886386,3.19114039901741
13.5780951249999,0.678361800312996,2.64008920311928,1.80949689745903,3.27177700255759
13.5880271250007,1.07577117428184,3.34602998077869,1.52260443091393,3.83034260931373
13.5979591249998,1.4137210893631,4.12535799264908,1.48905661582947,4.60808805158594
13.6078911250006,1.53662810057402,4.76792079985142,1.13636192321777,5.13669281675172
13.6178221250011,1.70564172282815,5.43957058131695,0.572653058320284,5.72940427278304
13.6277541250001,1.91723286911845,6.0645478874445,0.16472198523581,6.36251964916068
13.637686125001,2.0057241922617,6.62461817622185,-0.161987681016326,6.92349157036778
13.647618125,2.11348136007786,7.22115228652954,-0.424100853614509,7.53602715883402
13.6575501250009,2.32276636451483,7.93184685051441,-0.604935389757156,8.28706129275737
13.6674821249999,2.47224955558777,8.59037664949894,-0.825557852983475,8.97708942887299
13.6774141250007,2.60717405676842,9.26793621182442,-1.16936419308186,9.69842310918608
13.6873461249997,2.71044173240662,9.99234425067902,-1.44468151152134,10.4537334325389
13.6972781250006,2.71214941173792,10.5426795101166,-1.95083053171635,11.0593664125979
13.7072101249996,2.64740670114756,10.8710462772846,-2.76059505522251,11.5242914950579
13.7171421250005,2.84640499144793,11.0843725848198,-3.92803609907627,12.0993720733801
13.7270741250013,3.5797019675374,11.3612791764736,-4.98853800058365,12.9142728051343
13.7370061250003,4.01634922832251,11.4984466695786,-5.36158860504627,13.3075906649833
13.7469381250012,4.06772608101368,11.2908471250534,-5.91987315416336,13.3818729045254
13.7568701250002,3.84319299995899,10.8709527218342,-6.97467109680176,13.4756737280126
13.7668021250011,3.84088861227036,10.5288742339611,-6.49790667414665,12.9550148248606
13.7767341250001,3.83664177954197,10.4749266529083,-5.25892670094967,12.3328917360973
13.7866661250009,3.52568158864975,10.5365773558617,-4.26403348267078,11.9009190645907
