Time (s),Linear Acceleration x (m/s^2),Linear Acceleration y (m/s^2),Linear Acceleration z (m/s^2),Absolute acceleration (m/s^2)
0.00612274999730289,-1.39399463027716,1.35639966487885,-2.73560756385326,3.35657412007186
0.0161087501328439,-1.51276766002178,0.817301584482193,-3.96218266904354,4.31918272084823
0.0260957500431687,-2.07870153665543,0.464535263478756,-3.61844006359577,4.19879763543611
0.0360827501863241,-2.65447510778904,0.698033587932587,-1.79795098543167,3.28117612050441
0.0460687500890344,-2.52609100967646,1.10745065778494,0.62778046131134,2.828726048277
0.0560557499993593,-1.86085182309151,1.2365182954073,2.57032431900501,3.40562976661418
0.0660417501349002,-0.978752564191818,1.08878225237131,3.56549995779991,3.85437327253887
0.076028750045225,-0.53053190946579,0.915463763773441,3.79628780543804,3.94098199836808
0.086014750180766,-0.429301696121693,0.995000514686108,3.46135636925697,3.6270254872987
0.0960017500910908,-0.409255979061127,1.29114122986794,2.8466157835722,3.15242090323366
0.105988750001416,-0.616984747052193,1.60433856546879,2.07010963797569,2.69071111864231
0.115974750136957,-0.947213267683983,1.97008219689131,1.32960187554359,2.55856951917154
0.125961750047281,-1.2554629817605,2.23653630584478,1.00312083542347,2.75400315112265
0.135947750182822,-1.65573003619909,2.25392095506191,1.1458911305666,3.02236134629039
0.145934750093147,-1.95283905029297,2.0550445792079,1.78036256074905,3.34760801567296
0.155920749995857,-2.10931843489409,1.62831741213799,3.16240635931492,4.13539065094112
0.165907750139013,-1.94309261888266,1.05485539153218,5.06154107272625,5.52336191585302
0.175894750049338,-0.965707426071167,0.608273418992758,6.11400246798992,6.21961522633105
0.185880750184879,-0.143805252313614,0.123105670362711,5.73963331639767,5.74275417925672
0.195867750095204,0.340944712758064,-0.195136789083481,4.22579093813896,4.24401115885301
0.205853749997914,0.595997043550014,-0.323042731136084,1.55602185308933,1.69728403319886
0.215840750141069,0.346703635454178,-0.467865545153618,-1.62784671127796,1.72886855908641
0.22582675004378,-0.535484793484211,-0.73719239115715,-3.88592562139034,3.9913173916153
0.235813750186935,-1.2518625587225,-1.34323436647654,-5.26463299870491,5.57564337455934
0.24580075009726,-1.71296886876225,-1.4880196121335,-4.8326278424263,5.33879729666116
0.25578674999997,-1.97203472837806,-1.41266391277313,-3.61516562283039,4.35361490957518
0.265773750143126,-1.51937355190516,-2.28802103966475,-3.44736749053001,4.40770676008972
0.275759750045836,-0.929577042013407,-3.41615826934576,-3.64346088409424,5.08026160863617
0.285746750188991,-1.26903290748596,-4.3346488443017,-3.52812046229839,5.7312528403637
0.295732750091702,-2.95316784024239,-4.7783659735322,-2.76841219782829,6.26243465169391
0.305719750002027,-4.01812882840633,-4.59453740715981,-1.67857481539249,6.33030383775777
0.315706750145182,-3.06452163040638,-4.52311191380024,-1.4327298027277,5.64823413958862
0.325692750047892,-1.80427694186568,-4.32144992440939,-1.92049400746822,5.06148614191993
0.335679708514363,-1.35712033420801,-3.75673139154911,-2.94558224737644,4.96298913214916
0.345665708417073,-1.10074360907078,-3.3934456372261,-4.03416949510574,5.38531645318646
0.355652708327398,-0.943880866393447,-3.39651747196913,-4.73097282886505,5.89994457048493
0.365638708462939,-1.11013072907925,-3.72711612135172,-5.71285540759564,6.9108973169756
0.375625708373263,0.218634117543697,-4.30818785458803,-8.20627831578255,9.27099170875785
0.385612708516419,1.65242899060249,-4.91221195578575,-9.13894312620163,10.5062186028797
0.395598708419129,-1.22874559164047,-5.85542397379875,-5.97946388304234,8.45871112939322
0.405585708329454,-1.91304977104068,-6.34344896435738,-4.09241887271404,7.78761814803676
0.415571708464995,-0.358274105787277,-6.16262615919113,-4.54447062313557,7.66541158434214
0.42555870837532,0.0886876434087753,-6.04865924835205,-4.55918631076813,7.57498013311347
0.435544708510861,-0.365523191392422,-6.19618040621281,-4.26827914595604,7.53289225315114
0.445531708421186,-1.15819922715426,-6.68748860836029,-3.80885873436928,7.78275877790842
0.45551870833151,-3.41257948100567,-6.73782027125359,-3.68432298123837,8.40346098652084
0.465504708467051,-4.72831234574318,-5.73710790395737,-3.72706905126572,8.31639275488238
0.475491708377376,-3.08860572695732,-4.73482702106237,-2.43208912432194,6.15411486443185
0.485477708512917,-0.013819894194603,-4.02577055454254,0.113111463189125,4.02738299028067
0.495464708423242,2.78634531587362,-3.83683912307024,1.74197968304157,5.05168762808459
0.505450708325952,2.06474598705769,-3.69758768230677,0.643483743667603,4.28362019649058
0.515437708469108,1.12950489342213,-3.20662008047104,-1.86210838973522,3.87629221033024
0.525424708379433,0.746832110881805,-3.05369492590427,-3.00493499457836,4.34884412504971
0.535410708514974,-0.0172428542375565,-3.06955374419689,-3.21136392652988,4.44244479686049
0.545397708425298,-0.53490738093853,-3.18226116478443,-2.13335195302963,3.86834623354387
0.555383708328009,-0.532610009908676,-3.31282130420208,-0.240427567362785,3.36396549200168
0.565370708471164,0.833225306868553,-2.93562882453203,0.194658486843109,3.05778889623361
0.575356708373874,2.49326620280743,-2.53065329968929,0.0126779329776764,3.55256853716781
0.58534370851703,3.24124202907085,-2.0742366027832,0.105780808925629,3.84958399763895
0.595330708427355,3.69876384973526,-1.66177708044648,-0.705908617973328,4.1159037960252
0.605316708330065,4.41055008888245,-1.38947634056211,-1.34899182736874,4.81698822272076
0.615303708473221,4.91889239966869,-1.15614480793476,-1.85230377852917,5.38174716466561
0.625289708375931,5.57447520196438,-0.943740313947201,-2.74601092994213,6.28537951000945
0.635276708519086,5.87025660574436,-0.625520951002836,-3.71503548145294,6.97514714582303
0.645262708421797,4.45214776575565,-0.477734037190676,-4.60876485228539,6.42577333883438
0.655249708332121,3.20776087224483,-0.652011030614376,-5.38437929749489,6.30130054963571
0.665236708475277,3.17089944005013,-1.4688730506599,-5.60197290301323,6.60259734528462
0.675222708377987,3.63170505702496,-2.56408300101757,-4.74737017571926,6.50394702028212
0.685209708521143,3.30475273132324,-3.5175089353323,-2.46322788655758,5.41864847968992
0.695195708423853,3.57047886192799,-4.60320912033319,-0.0180129325389862,5.82564828793602
0.705182708334178,6.13934137701988,-4.14621091783047,-0.834519880414009,7.45513252394155
0.715168708469719,5.74240431189537,-4.35359236121178,-0.0798273575305939,7.20661821771394
0.725155708380044,5.23619272649288,-5.37342395424843,0.112000784575939,7.50359536734314
0.735142708523199,4.89117776691914,-6.67553222179413,0.659630244970322,8.30189511207503
0.745128708425909,5.62126696050167,-8.03379013180733,0.928158946037292,9.84895452077334
0.755115708336234,5.62885606169701,-8.26984690546989,2.3720317876339,10.2810954282488
0.765101708471775,5.53017318785191,-7.47340292394161,3.76275811672211,10.0296019560187
0.7750887083821,5.42467362999916,-7.23394774854183,5.13126502633095,10.396488098925
0.785074708517641,5.64951252043247,-6.36475270986557,6.68707170188427,10.8233080304686
0.795061708427966,5.5740694051981,-5.13797704517841,8.42192187488079,11.3312764469561
0.80504870833829,5.13560249090195,-4.12913617104292,10.0549585747719,12.0219120943364
0.815034708473831,4.38362132191658,-3.1591813275218,10.9477488827705,12.2085940285656
0.825021708384156,3.48107844293118,-1.67801026672125,11.1532516157627,11.8037556390149
0.835007708519697,3.29683852493763,-0.229721900224686,10.6427370643616,11.1440463312071
0.844994708430022,3.59697668910027,1.10254747509956,8.76983237564564,9.5427360926362
0.854981708340347,2.900075122118,2.30887396484613,7.56775184154511,8.42687383521798
0.864967708475888,3.07147046148777,3.22345596849918,8.1132292342186,9.25467923720883
0.874954708386213,4.07743830621243,3.48570885300636,6.96344034969807,8.79006091291173
0.884940708521754,4.35277608990669,3.91628085672855,5.05153765618801,7.73317193197768
0.894927708432078,4.1050096821785,4.42458808422089,3.28130013406277,6.86986279161447
0.904913708334789,3.82263652861118,4.7890093678236,1.72834806919098,6.36665907703962
0.914900708477944,3.56512222766876,5.06807241261005,0.427818476781249,6.2111579537758
0.924887708388269,3.34735379040241,5.23948704779148,-0.429927055835724,6.23232213508221
0.93487370852381,2.98118301987648,5.18630369782448,-0.328588888272643,5.99109079396765
0.944860708434135,4.1480627310276,4.52346859395504,2.79738807499409,6.74489233295513
0.954846708336845,5.42573197603226,4.4649876666069,3.16699233055115,7.70743295530104
0.964833708480001,2.2703808671236,5.24463902950287,-0.016039497256279,5.71499125957844
0.974819708382711,2.59992643296719,5.81363392353058,1.3600834107399,6.51212590002964
0.984806708525866,2.12384671926498,5.71793897688389,0.902692567706108,6.16606883695702
0.994793708436191,1.99849703371525,5.4102339309454,0.518041672110558,5.79076754458031
1.0047797083389,1.504977414608,5.47823471009731,-0.218324507474899,5.68539164420177
1.01476670848206,1.22367430150509,5.50513541042805,-0.716144242063165,5.6847829561693
1.02475270838477,0.952973359823227,5.34691267848015,-0.534942025691271,5.45745328763107
1.03473970852792,0.884811782240868,5.29313525140286,-0.005758411064744,5.36658232387558
1.04472570843063,0.961246585249901,5.26357816100121,0.695012916326523,5.39558087776322
1.05471270834096,1.12817231297493,5.32570892035961,1.38545681834221,5.6174227958782
1.06469970848411,1.42551843166351,5.2589261162281,1.47074474439025,5.64371303293408
1.07468570838682,1.50564809024334,4.93528916180134,1.34303760766983,5.33177318514795
1.08467270852998,1.59313003778458,4.56662572324276,1.20504105247557,4.98440144366657
1.09465870843269,1.51451305389404,3.97924016654491,1.21839835882187,4.42861114281212
1.10464570834301,1.31118957817554,3.49525677144527,1.27276050746441,3.94410412104083
1.11463170847856,1.11423313558102,3.24065262973309,1.43333732843399,3.71453911597455
1.12461870838888,0.960251389145851,3.08942141354084,1.79088170170784,3.69781890718207
1.13460570853204,0.909225661754608,3.04193442106247,1.81958685278893,3.65936505979932
1.14459170843475,0.778248031139374,2.94357723712921,1.69152464389801,3.4830407074612
1.15457870834507,0.845529602766037,2.87316682040691,1.50614393413067,3.35238384397722
1.16456470848061,1.10483490586281,2.84361733138561,1.30531780421734,3.31823360639005
1.17455170839094,1.27048243224621,2.65028791666031,0.93712799012661,3.08485988688638
1.18453870853409,1.51317813456059,2.31998805999756,0.433642376661301,2.80358669854883
1.1945247084368,1.71208228468895,1.8077325001359,0.0123253458738327,2.48983422254258
1.20451170834713,1.81617675662041,0.980027257204056,-0.2543726102449,2.07934048702802
1.21449770848267,1.69824075579643,0.102937600314617,-0.32187347073108,1.73153698931529
1.22448470839299,1.68703222811222,-0.471538766026497,-0.239556332230568,1.7679971105369
1.23447070852853,1.92990042328835,-0.550128852725029,-0.0057793696783483,2.00678618679793
1.24445770843886,2.35358966946602,-0.357191786170006,0.186740772128105,2.38785309855935
1.25444470834918,3.01017760813236,-0.0584794655442238,0.232484691347927,3.01970829917443
1.26443070848472,3.73656609892845,0.0981873223185539,0.0672119897603989,3.73846016609687
1.27441770839505,4.22746850430965,0.0621754905581474,-0.191661807093769,4.23226771304164
1.28440370853059,4.32373238503933,0.00265054285526276,-0.413866545148194,4.3434956290997
1.29439070844091,4.24410500228405,-0.15576427012682,-0.597046911120415,4.28872414505049
1.30437670834363,4.23265206098557,-0.508483813405037,-0.901778647899628,4.35741941837918
1.31436370848678,4.30227719664574,-1.05310838967562,-1.29817133724689,4.61561211303901
1.32435070839711,4.30248594224453,-1.48253609329462,-1.51018845319748,4.79478547124937
1.33433670853265,4.26750029683113,-1.49228632539511,-1.27432814598084,4.69706179265868
1.34432400017977,4.23992775142193,-1.16352808713913,-0.782027671337128,4.46568608677059
1.35431000008248,3.85988153815269,-0.462561535835266,-0.253279144372791,3.89574113462131
1.3642969999928,3.51010636031628,0.489559592306614,0.083358491063118,3.54506190258852
1.37428300012834,2.95030621290207,1.37388020843267,0.155685606803745,3.25823442759686
1.38427000003867,2.26906933665276,1.97345282435417,-0.0900102835893631,3.00853677983851
1.39425700018182,1.74963018000126,2.10273417770863,-0.374435809850693,2.76095979046667
1.40424300008453,1.46661558687687,1.92058785527945,-0.437933648228645,2.45589186850072
1.41422999999486,1.15345801234245,1.63939028441906,-0.32932687997818,2.03138427796436
1.4242160001304,0.835751888751984,1.36958542853594,-0.248810720443726,1.6236231829517
1.43420300004073,0.690739186406136,1.04426915377378,-0.10616557398811,1.25653882481229
1.44419000018388,0.794949433207512,0.621853723526001,0.076057054605335,1.01214195169222
1.45417600008659,0.743058317899704,0.165603087544441,0.299466373901814,0.818070996614652
1.46416299999692,0.620041671395302,-0.269726795554161,0.552560746259987,0.873228261575397
1.47414900013246,0.402186695337296,-0.71034343868494,0.595232556648552,1.01026914002332
1.48413600004278,0.0894530439376831,-1.15470493108034,0.470302079916,1.25001174846651
1.49412200017832,-0.267331776022911,-1.54300814375281,0.356770238466561,1.60612123241509
1.50410900008865,-0.615175033807754,-1.78315957635641,0.401702545881271,1.92859102257048
1.51409599999897,-0.888163406252861,-1.9245644004643,0.541454581394792,2.18768266242035
1.52408200013451,-1.06294428348541,-2.05155349910259,0.744816064015031,2.42764768421805
1.53406900004484,-1.30647906124592,-2.10997463867068,0.915326719656587,2.64512826097805
1.54405500018038,-1.68924773812294,-2.12091521769762,0.909274851456285,2.85982867264906
1.5540420000907,-2.07452019274235,-2.10800324991345,0.766546656265855,3.05530775994396
1.56402799999341,-2.44150548040867,-2.06424648866057,0.555936745852232,3.24516998664197
1.57401500013657,-2.81681018650532,-1.92921586051583,0.32510972186923,3.42957574555802
1.58400200004689,-3.12219798088074,-1.8155056424439,0.109352288246155,3.61332795252604
1.59398800018244,-3.34613873898983,-1.77368927970529,-0.15661408983171,3.79040183814905
1.60397500009276,-3.38924031972885,-1.96448831185699,-0.474274532049894,3.94602339121926
1.61396099999547,-3.31012749195099,-2.52044347643852,-0.559686272889376,4.19795522307612
1.62394800013863,-2.90531305789948,-2.83975495308638,-0.319948969334364,4.07522017821834
1.63393400004134,-2.1982864522934,-2.9209631305933,0.298959073126316,3.66795112617748
1.64392100018449,-1.48598799705505,-2.81786970198154,1.13877945452929,3.38310044645371
1.65390800009482,-0.804308486580849,-2.6835138425231,1.94436175704002,3.41008816995086
1.66389399999753,-0.474260060191155,-2.55828373253345,2.70730674773455,3.7548965481311
1.67388100014068,-0.730287998914719,-2.56416544675827,3.43976055532694,4.35203603818845
1.68386700004339,-1.12370387077332,-2.73884341299534,3.93816610783339,4.9267764230769
1.69385400018655,-1.49781048238277,-2.97778929591179,4.16281876444817,5.332890904343
1.70384000008926,-1.91511223018169,-3.21035820543766,4.13679777771235,5.57558521727524
1.71382699999958,-2.3320339089632,-3.43643612086773,3.89797848701477,5.69576260483077
1.72381400014274,-2.7296223539114,-3.72050145864487,3.70754315167665,5.91936191834017
1.73380000004545,-2.89984649598598,-4.02900406479836,3.79261750817299,6.24707379640613
1.7437870001886,-2.74894681692123,-4.3494177415967,4.06689548403025,6.55848932081185
1.75377300009131,-2.70149081468582,-4.87178255259991,4.23061167508364,6.99502630495431
1.76376000000164,-2.88850523650646,-5.33399968743324,3.74660781472921,7.12966235415487
1.77374700014479,-3.4022199690342,-5.34954743385315,2.760028167665,6.91451472997521
1.78373300004751,-3.73523936569691,-5.16256575644016,2.23884420186281,6.75400041966501
1.79372000019066,-3.33377772510052,-5.08977844655514,2.104043661654,6.43792810503037
1.80370600009337,-2.64106627285481,-5.04702477514744,1.96030419051647,6.02415825306073
1.8136930000037,-2.24253174841404,-4.99057809412479,1.58033720701933,5.69493494643204
1.82367900013924,-1.751478484869,-4.82076735019684,1.0532870221138,5.23611385271904
1.83366600004956,-1.18289757370949,-4.60305183023214,0.572259979248047,4.78694206206219
1.84365300019272,-0.530206219553947,-4.27411992967129,0.291588950157165,4.31673996487173
1.85363900009543,0.0589323323965073,-4.04857001781464,-0.0290071597695351,4.04910281720126
1.86362600000575,0.582073945999146,-4.20503361493349,-0.576562360525131,4.28410339941813
1.87361200014129,0.955851944088936,-4.63249577701092,-1.22447127699852,4.88600040638936
1.88359900005162,0.928562988638878,-5.11992902934551,-1.86980961129069,5.52920342109783
1.89358500018716,0.733200497031212,-5.43813275098801,-2.22649342060089,5.92183617961475
1.90357200009748,0.658343272805214,-5.33775359988213,-1.80164876461029,5.67194566519499
1.91355900000781,0.835428537726402,-4.68780517458916,-0.670929258316755,4.80870089173968
1.92354500014335,1.39731146335602,-3.55370846271515,0.621349693536758,3.86877223486439
1.93353200005367,1.93216680407524,-2.17743498891592,1.66294930100441,3.3525948260171
1.94351800018922,2.32229946434498,-0.657462097406387,2.16688807368279,3.24356827205651
1.95350500009954,2.52613691031933,0.800087673962116,2.10339067384601,3.38315833246482
1.96349100000225,2.67433400630951,1.87606510877609,1.59977495983243,3.63743901554066
1.97347800014541,2.77653631925583,2.64903018057346,0.850684508085251,3.9306715662889
1.98346500005573,2.75097755491734,3.18802096456289,0.0100455164909363,4.21087355432968
1.99345100019127,2.65733615040779,3.49264774382114,-0.769963549822569,4.45565568090022
2.0034380001016,2.5887342774868,3.43604552686214,-1.35991369530559,4.51190860731732
2.01342400000431,2.31346666038036,3.1992666220665,-1.81015178561211,4.34328037256576
2.02341100014746,1.86608332693577,2.89649896502495,-2.14559821531177,4.05901033984976
2.03339800005779,1.44124100983143,2.47798508942127,-2.38504768967628,3.72908007876531
2.04338400019333,0.835422105789185,2.04413045883179,-2.62962385654449,3.43384930573155
2.05337100010365,0.122821934223175,1.70889028966427,-2.86944389820099,3.34202027740079
2.06335700000636,-0.266586840748787,1.6210352897644,-2.79411421895027,3.2412803369752
2.07334400014952,-0.351484318971634,1.68234393060207,-2.26421614766121,2.84262151730517
2.08333000005223,-0.350102037191391,1.70386285364628,-1.48048693656921,2.28419824661374
2.09331700019538,-0.513761510252953,1.60655963033438,-0.580768774375319,1.78389380416182
2.10330400010571,-0.817147802710533,1.51399469822645,0.183392217904329,1.73018588114697
2.11329000000842,-1.20215303957462,1.36224161803722,0.803761918097734,1.98668250544855
2.12327700015157,-1.52516024887562,1.21569168269634,1.27186310604215,2.32844493442267
2.13326300005428,-1.76539251923561,0.987498829364777,1.59326335430145,2.57492772736047
2.14325000019744,-1.95902131140232,0.792574001848698,1.80941854476929,2.78207360022878
2.15323600010015,-2.20439620792866,0.80353519231081,1.93849232196808,3.04348220450546
2.16322300001048,-2.42565367877483,0.882293971180916,1.92101031661034,3.21753307014231
2.17321000015363,-2.45528385937214,0.864569306373596,1.77471882820129,3.15048025462608
2.18319600005634,-2.27407046020031,0.869944651722908,1.6450696849823,2.93844421819859
2.1931830001995,-1.89350326001644,0.938934779763222,1.54075301885605,2.61550625720068
2.20316900010221,-1.3928447753191,1.07134410113096,1.47925434350967,2.29695192896022
2.21315600001253,-0.884056906700134,1.24135803580284,1.25858510255814,1.97650268092856
2.22314300015569,-0.436153755784035,1.4922696608305,0.920688543319702,1.80686641263815
2.2331290000584,-0.0893828773498535,1.83040595591068,0.657424675226212,1.94694182393643
2.24311600020155,0.176278933882713,2.09559648156166,0.553868147134781,2.17471119932624
2.25310200010426,0.293610917329788,2.15307344198227,0.324498249292374,2.197096204343
2.26308900001459,0.277444535493851,2.23262656509876,0.0366059043025598,2.25009707383702
2.27307500015013,0.436504004001617,2.31422504425049,-0.214234964847565,2.36475578466548
2.28306200006045,0.929171099066734,2.23954674482346,-0.336093862652779,2.44783325373749
2.29304900020361,1.44383834302425,1.91858606100082,-0.336696710586548,2.42466622634405
2.30303500010632,1.79064021170139,1.62695793449879,-0.2865989545919,2.43629297276903
2.31302200001664,2.16049823641777,1.46136244833469,-0.17355000179261,2.61408730498606
2.32300800015219,2.72735480368137,1.27013510763645,-0.00365279216319323,3.00860777764486
2.33299500006251,3.22664620935917,0.993772307038307,0.108751742653549,3.37796626687395
2.34298195852898,3.49070939183235,0.743329043984413,-0.0305792567878962,3.56910706154958
2.35296895843931,3.63313762485981,0.574171434044838,-0.362462539449334,3.69604395663108
2.36295595834963,3.89114776968956,0.515498133301735,-0.674814294576645,3.9827306741936
2.37294195848517,4.29274506568909,0.568915371894836,-0.733272490873933,4.3919259380423
2.3829289583955,4.72216049015522,0.795735298991203,-0.456782732605934,4.81047241189995
2.39291495853104,5.22833172976971,0.987290083765984,-0.0596250812709332,5.32106657882946
2.40290195844136,5.81496124148369,0.810602429509163,0.157348134666681,5.87329626139928
2.41288795834407,6.28391319930554,0.289644166231155,0.116637334227562,6.29166616304249
2.42287495848723,6.44699145913124,-0.357198218107224,-0.0432659605890512,6.45702418955325
2.43286195839755,6.03946157813072,-0.99661346912384,0.327735852599144,6.12990581898574
2.44284795853309,5.30327549278736,-1.01728805422783,0.383050366491079,5.41353244388012
2.45283495844342,4.69583632528782,-0.347404716610909,0.67319161914289,4.75654872645076
2.46282095834613,4.20087595224381,0.843300059437752,1.22019067659974,4.4550397353614
2.47280795848928,3.74928613185883,2.12174815356731,1.45733971014619,4.54783473275846
2.48279395839199,3.46196681857109,3.02504298448563,1.56003479719162,4.8548746512471
2.49278095853515,3.27116515517235,3.44279730677605,1.565997787714,5.00057235114975
2.50276795844547,2.96308296382427,3.4271291077137,1.0944490083307,4.66078246684826
2.51275395834818,2.62119392573833,3.13060627698898,0.581169893369079,4.12421043386598
2.52274095849134,2.0315922743082,2.64811509132385,0.149991606473923,3.34101454470623
2.53272695839405,1.36859988033772,2.04750547170639,-0.284727827310562,2.47919628605179
2.54271395853721,0.77970866560936,1.44774077475071,-0.402280250787735,1.69284622877447
2.55269995843992,0.245302391052246,1.01183844923973,-0.14127267703414,1.05068943065599
2.56268695835024,0.0779118096828461,0.749278001189232,0.308375136852264,0.813992013586644
2.5726739584934,0.166071449518204,0.57687986433506,0.683231946229935,0.909492164105584
2.58265995839611,0.389715753793716,0.413406040370464,0.951230962648988,1.10798161865254
2.59264695853926,0.756585851311684,0.364648447930813,1.17189596436918,1.44178042443645
2.60263295844197,0.850285727977753,0.390206335186958,1.37093291938305,1.65973006018172
2.6126199583523,0.639787718653679,0.35325924128294,1.42246603891253,1.59922795384254
2.62260695849545,0.406934049725533,0.34536988556385,1.36959683060646,1.46992216021382
2.63259295839816,0.0637890297174454,0.344700671732426,1.33096778512001,1.37635854283408
2.64257995854132,-0.327515997290611,0.263112425208092,1.32088075339794,1.38608110927076
2.65256595844403,-0.778260895013809,0.217502388954163,1.28402516841888,1.51714137213432
2.66255295835435,-1.31307705938816,0.12844724804163,1.15366208016872,1.75259985582567
2.67253895848989,-1.74441621780396,-0.00743590414524078,0.945331633687019,1.98411066507322
2.68252595840022,-2.06313975691795,-0.0800594919919968,0.832494404911995,2.22620801207867
2.69251295854338,-2.32978331565857,-0.0608876413106918,0.859902643561363,2.48415582425685
2.70249895844609,-2.33001369595528,-0.0757492169737816,0.907659777402878,2.50170902359294
2.71248595835641,-2.15368330657482,-0.16897985458374,1.06038261830807,2.40651558762541
2.72247195849195,-2.10519702494144,-0.341121006309986,1.25781794786453,2.47594911998175
2.73245895840228,-2.05048755168915,-0.578124444186688,1.42422736644745,2.56264524738329
2.74244495853782,-2.00028686642647,-0.890424524545669,1.53178865253925,2.67214892136621
2.75243195844814,-1.98623483777046,-1.2911014688015,1.52838615775108,2.81922614926855
2.76241895835847,-2.07417520701885,-1.69995106637478,1.45744305968285,3.05224125679772
2.77240495849401,-2.17634126722813,-1.89294485092163,1.44591585874557,3.22651114838347
2.78239195840433,-2.25775789797306,-2.04409917622805,1.45599996685982,3.3757588882519
2.79237795853987,-2.32214217424393,-2.17329720675945,1.48118275523186,3.50848505493568
2.8023649584502,-2.38725793719292,-2.29615071594715,1.44645263314247,3.61435108822593
2.81235195836052,-2.33959435880184,-2.33322791039944,1.39499596595764,3.58659559898275
2.82233795849606,-2.19724740207195,-2.35597211748362,1.42669255256653,3.52334392357899
2.83232495840639,-2.1586201107502,-2.47697790652514,1.46938541293144,3.59918793947809
2.84231095854193,-2.11583194077015,-2.7147458678484,1.42810523986816,3.72640235411073
2.85229795845225,-2.20102411866188,-3.03068350106478,1.37099548459053,3.98863112775864
2.86228395835496,-2.408977419734,-3.4654763174057,1.19586318969727,4.38666012858997
2.87227095849812,-2.60339149296284,-3.99611201494932,0.916401364803314,4.85657800957289
2.88225795840845,-2.70024184942246,-4.39384810209274,0.729829577207565,5.20863306457686
2.89224395831116,-2.72992290079594,-4.64998479902744,0.674413175582886,5.434120978307
2.90223095845431,-2.61460060536861,-4.66002593010664,0.68277001619339,5.3868499969716
2.91221695835702,-2.28545498907566,-4.52956723988056,0.705514515638351,5.1223075483093
2.92220395850018,-1.83129824101925,-4.32213521808386,0.777400184869766,4.75803080469185
2.93218995840289,-1.4193203830719,-4.18034988641739,0.788797577619553,4.48464013507569
2.94217695831321,-1.11695501446724,-4.10650920063257,0.607005304098129,4.29877444842443
2.95216395845637,-0.804673352837563,-4.07399985104799,0.294592080116272,4.16314286144172
2.96214995835908,-0.51173954308033,-4.17291895240545,-0.101370829744264,4.20540200081036
2.97213695850223,-0.0576371741294861,-4.46007454365492,-0.572455276250839,4.49703146776934
2.98212295840494,0.420482048392296,-4.91396027326584,-0.934026042222977,5.0195831866606
2.99210995831527,0.607234514951706,-5.2838808631897,-0.852162684202194,5.38649347654647
3.00209595845081,0.504754459261894,-5.45886814713478,-0.317965739965439,5.49136783722774
3.01208295836113,0.4824075704813,-5.32840331733227,0.46608039021492,5.3704590033216
3.02206995850429,0.396294456124306,-4.75116618812084,1.26606953859329,4.93290599136568
3.032055958407,0.128076826930046,-3.55258842855692,1.87822974801064,4.02057647640548
3.04204295831732,0.0774364310503006,-1.94672081619501,2.10495670437813,2.86819822612859
3.05202895845287,0.236581268906593,-0.492046997845173,1.79775568842888,1.87883114200406
3.06201595836319,0.513479089736938,0.649805460870266,1.23402796626091,1.48618065324776
3.07200195849873,0.831073531508446,1.58469893753529,0.566675888299942,1.87698574842216
3.08198895840906,0.952788587808609,2.27182688355446,-0.14281181037426,2.46767070231858
3.09197595831938,0.906152365207672,2.74262422263622,-1.01575666844845,3.06183953613835
3.10196195845492,0.812673513293266,2.91516853988171,-1.91674477279186,3.58225576685269
3.11194895836525,0.772421865463257,2.87172782063484,-2.60081345558167,3.95065650807413
3.12193495850079,0.722382563352585,2.75114946305752,-3.07071500122547,4.18568400081381
3.13192195841111,0.594333218336105,2.60743425786495,-3.32262942373753,4.26518600661119
3.14190795831382,0.411588433384895,2.37848009705544,-3.52942614555359,4.27591177732917
3.15189495845698,0.235729329586029,1.9778891068697,-3.45605060577393,3.98897222672347
3.1618819583673,0.103174704909325,1.49573530554771,-2.93678452670574,3.29735840943827
3.17186795850284,0.0574559104442596,1.02321011424065,-1.89958845734596,2.15840135906447
3.18185495841317,-0.0549725979566574,0.56794064104557,-0.877725541591644,1.04689096119878
3.19184095831588,-0.187177559137344,0.223196992278099,0.149246077341959,0.327302196156038
3.20182795845903,-0.434529983997345,0.0295500737428665,1.15477597475052,1.23417870088247
3.21181495836936,-0.799545929431915,-0.0635165494680405,1.88769872903824,2.05102767824816
3.2218009585049,-1.22394268870354,-0.196939193308353,2.29475147724152,2.60819958848895
3.23178795841523,-1.5854742783308,-0.303753205239773,2.48292189359665,2.96156982471182
3.24177395831794,-1.88232162952423,-0.362274186015129,2.63407475709915,3.25771808614782
3.25176095846109,-2.08128074347973,-0.419323714971542,2.75205987453461,3.47583018344402
3.2617469583638,-2.17820126652718,-0.404761809110642,2.80642494678497,3.57552987143894
3.27173395850696,-2.05660783231258,-0.309602175056934,2.83674392938614,3.51747145029474
3.28172095841728,-1.95631229639053,-0.191170330345631,2.8016360771656,3.42240684388767
3.29170695831999,-1.79997178316116,-0.0525881034135819,2.6298694396019,3.18729935810068
3.30169395846315,-1.57041594386101,0.194852029681206,2.35622851788998,2.83830695639526
3.31167995836586,-1.27441702365875,0.502673142850399,1.96041996538639,2.39166583774153
3.32166695850901,-0.977143995165825,0.739229561090469,1.61100965380669,2.02401157010946
3.33165295841172,-0.66249655008316,0.907494301199913,1.29898176133633,1.71749853038273
3.34163870848715,-0.443893715143204,1.10416306078434,0.991945052146912,1.54924907023468
3.35162570839748,-0.309841618537903,1.44168422877789,0.672405826449394,1.6206741928988
3.36161170853302,-0.230018938779831,1.74800699293613,0.334732594303787,1.79457044142613
3.37159870844334,-0.159309729337692,2.01295427441597,-0.00885849516838789,2.01926793013899
3.38158470834605,-0.0619331234693527,2.2580970364809,-0.277843827232718,2.27596905301409
3.39157170848921,0.0931677800416946,2.44200307846069,-0.497068879008293,2.49381970898619
3.40155770839192,0.327910099625587,2.49719319283962,-0.727328723073006,2.62154648007775
3.41154470853508,0.644915142059326,2.3490539842844,-0.914544800743461,2.60199199731796
3.4215317084454,1.06689992487431,1.9826218432188,-1.0090914273262,2.46725157444642
3.43151770834811,1.57340854883194,1.48548864483833,-1.00182275354862,2.38452087535605
3.44150470849127,2.12901039540768,1.07646538496017,-0.976832338571549,2.57791861905115
3.45149070839398,2.67571336448193,0.788995798230171,-1.08777280367911,2.99419539290875
3.46147770853713,3.15969032764435,0.612950168251991,-1.40502627968788,3.51190115492776
3.47146370843984,3.59524415910244,0.59215162217617,-1.80812177851796,4.06764409371777
3.48145070835017,3.93146666049957,0.622465927004814,-2.15878617167473,4.52816206290319
3.49143770849332,4.19056555688381,0.69913286447525,-2.33639534711838,4.84854304577846
3.50142370839603,4.35202296853066,0.710332036614418,-2.26760870218277,4.95850025179733
3.51141070853919,4.44219931304455,0.571134390234947,-1.95995569646358,4.88883989926266
3.5213967084419,4.52383755326271,0.149039679765701,-1.6758406573534,4.82656823667638
3.53138370835222,4.67768189013004,-0.562008056044579,-1.59284352421761,4.97329985150217
3.54136970848776,4.87461962163448,-1.4207319009304,-1.46189629912376,5.28370479676306
3.55135670839809,4.77991928637028,-2.06678783476353,-1.1014329957962,5.32281833076892
3.56134370854124,4.2583330321312,-2.34675602853298,-0.591331842541695,4.89799320313935
3.57132970844395,3.46709950447083,-2.00107507109642,0.0642603152990341,4.00364956036211
3.58131670835428,2.73219688296318,-0.976900750994682,0.755353842973709,2.99829856963293
3.59130270848982,2.31736207544804,0.509648578763008,1.21932214580476,2.66770597289317
3.60128970840015,2.34407566487789,1.90930068254471,1.30527628898621,3.2930025826938
3.6112767085433,2.37160552561283,3.00048000097275,1.07042455337942,3.97154903404607
3.62126270844601,2.35104671537876,3.70547352969646,0.783412876725197,4.45776743141601
3.63124970835634,2.16721785664558,4.00664840519428,0.436097622513771,4.57605133465213
3.64123570849188,1.8282840013504,3.96879060745239,-0.0370334134250879,4.36981610014725
3.6512227084022,1.46934097409248,3.75439075112343,-0.391689773797989,4.05065842662228
3.66120870853774,1.16041152119637,3.32760189592838,-0.638611258864403,3.58152392373132
3.67119570844807,0.95433342218399,2.75722296595573,-0.770231498479843,3.01766255998606
3.68118270835839,0.880629268884659,2.19959915220737,-0.771151777133346,2.49167000282615
3.69116870849393,0.950623363852501,1.69855475127697,-0.545399039983749,2.02144332985197
3.70115570840426,1.14665477693081,1.17360196262598,-0.17755717176944,1.65035914072803
3.7111417085398,1.2835655772686,0.652097861766815,0.248430030159652,1.4609892855031
3.72112870845012,1.26486618161201,0.152732196450233,0.607718627862632,1.41157200024282
3.73111470835283,1.16558864593506,-0.185196522474289,0.882272336483002,1.47353287007534
3.74110170849599,0.995079744458199,-0.373272506296635,1.05555632650852,1.49790360845421
3.75108870840631,0.739476313591003,-0.447346788346767,1.15801182389259,1.44496911789884
3.76107470854186,0.534068305492401,-0.369713306128979,1.20636186540127,1.3701189123411
3.77106170845218,0.353592240214348,-0.117938924431801,1.18777298212051,1.24488622744867
3.78104770835489,0.21096227824688,0.143514938056469,1.09066125512123,1.12010874191352
3.79103470849805,0.169987914562225,0.300437249243259,0.956198683977127,1.01659940737228
3.80102170840837,0.0354528379440308,0.444229345321655,0.904126889705658,1.00798911087969
3.81100770831108,-0.143371388912201,0.562607103288174,1.0189053940773,1.17271066760252
3.82099470845424,-0.245045698285103,0.540875926315785,1.15633718132973,1.29988839476379
3.83098070835695,-0.26971334695816,0.36154766947031,1.3232705104351,1.39803678442807
3.8409677085001,-0.339975829124451,0.155317250490189,1.47264932870865,1.51934296919251
3.85095370840281,-0.457943404912949,-0.0395613840222359,1.59475556373596,1.65967544215001
3.86094070831314,-0.54387116253376,-0.253348452150822,1.66822816729546,1.7728413628413
3.87092770845629,-0.762047150731087,-0.558485400974751,1.66855093359947,1.91746812778074
3.880913708359,-0.892414916753769,-0.859626070261002,1.67219374895096,2.08124801461711
3.89090070850216,-0.926276727318764,-1.08908572286367,1.69669358253479,2.21875311838262
3.90088670840487,-0.998671689033508,-1.32044542819262,1.77439372301102,2.42680744097522
3.91087370831519,-1.15475726366043,-1.57930780470371,1.86790941238403,2.70495158049963
3.92085970845073,-1.35338600993156,-1.83931828200817,1.93127086445689,2.99074448696441
3.93084670836106,-1.55025299012661,-2.10144048124552,1.93677324056625,3.25121931204085
3.94083370850421,-1.77976497530937,-2.33849756732583,1.93639448717237,3.51934054187405
3.95081970840693,-1.96647709608078,-2.56948933660984,1.89382661104202,3.74911814338424
3.96080670831725,-2.21748929321766,-2.85890312254429,1.83328570961952,4.05604762333033
3.97079270845279,-2.42441523849964,-3.22781448304653,1.71028602004051,4.38425066071504
3.98077970836312,-2.64805428028107,-3.64158977508545,1.49732925653458,4.74503555980313
3.99076570849866,-2.87165999293327,-4.0517134809494,1.24385494306684,5.11956915825077
4.00075270840898,-3.03218126535416,-4.41130145609379,1.04482025384903,5.4539300623819
4.01073970831931,-3.17767460882664,-4.68862407714129,0.864989282637835,5.72966125660224
4.02072570845485,-3.26028465628624,-4.93333268344402,0.699645080566406,5.9545554531227
4.03071270836517,-3.30540528059006,-5.09012518644333,0.580110450983047,6.09685218928236
4.04069870850071,-3.2545631557703,-5.1424829095602,0.470883293151856,6.10401858498038
4.05068570841104,-2.9981387758255,-5.17123542308807,0.40111084420234,5.99094331716183
4.06067270832136,-2.68251192212105,-5.11145992219448,0.326481697931886,5.78182350540091
4.0706587084569,-2.38334498047829,-5.01527439415455,0.211109043359756,5.5567866229343
4.08064570836723,-2.07543937504292,-4.94941837370396,0.0912995946407318,5.36773010251246
4.09063170850277,-1.82440554320812,-4.93284911870957,0.00226755023002625,5.25941642730696
4.10061870841309,-1.62698541641235,-5.02392242610455,-0.0894752633571625,5.28156074579167
4.1106047083158,-1.34329488515854,-5.25362210690975,-0.313791924342513,5.43170799679866
4.12059170845896,-0.842972615361214,-5.57670591473579,-0.567354092225432,5.66852206096643
4.13057870836929,-0.436553120613098,-5.87239200890064,-0.637797911167145,5.92303576798303
4.14056470850483,-0.326474608182907,-6.03529251337051,-0.365663816928864,6.05516733201861
4.15055170841515,-0.414685703516007,-5.8423250412941,0.310157368183136,5.86523006487136
4.16053770831786,-0.669148342609406,-5.19197374284267,1.17466367080808,5.36508952304628
4.17052470846102,-0.946005232930184,-4.184704015553,1.89712911844254,4.69103106902515
4.18051170837134,-1.04165223240852,-3.03994490593672,2.38694452643394,4.00297496578298
4.19049770850688,-0.837741696238518,-1.89622893959284,2.54964914917946,3.28606240428838
4.20048470841721,-0.52077349126339,-0.89359751611948,2.37836666107178,2.59352068133556
4.21047070831992,-0.0533815705776215,-0.163083814680576,2.00832795739174,2.01564558073322
4.22045770846307,0.419393881559372,0.395429945290089,1.50159304618835,1.60842710306771
4.23044370836578,0.753929461240768,0.807930544316769,0.741026995182037,1.33051959946305
4.24043070850894,0.848504666090012,1.04269566804171,-0.153734975662082,1.35307385876429
4.25041770841926,0.754412441253662,1.11271490603685,-1.02314579486847,1.6894081541155
4.26040370832197,0.481179655194283,1.10937585353851,-1.73928002357483,2.11833511168409
4.27039070846513,0.139807510972023,1.02457134604454,-2.19322276353836,2.42477188076787
4.28037670836784,-0.200580546855927,0.891737809181213,-2.38162005186081,2.55098862159866
4.290363708511,-0.376230905056,0.75610842615366,-2.2812397313118,2.43255099797216
4.30035070842132,-0.509577242732048,0.630822767615318,-1.99604178786278,2.154481178694
4.31033670832403,-0.729740699529648,0.51769083917141,-1.46225882649422,1.71427132309103
4.32032370846719,-0.858053169250488,0.368637710809708,-0.815320547819138,1.2397163380338
4.3303097083699,-0.939241173863411,0.277501545846462,-0.120412872238085,0.986752426107035
4.34029670851305,-1.05752157568932,0.218034485578537,0.581033141613007,1.22616900613357
4.35028270841576,-1.15228506088257,0.147420585751534,1.16732293009758,1.64685655531017
4.36026970832609,-1.19418153047562,0.151280332803726,1.62099085092545,2.01905091704154
4.37025670846924,-1.30638784468174,0.279602742791176,1.92619211912155,2.34415080024185
4.38024270837195,-1.35932385742664,0.426569584608078,2.03613146781921,2.48506625950408
4.39022970851511,-1.36864841222763,0.566876447796822,1.97240032553673,2.46676112089058
4.40021570841782,-1.27113088846207,0.684726786911488,1.83887740194798,2.33796805104591
4.41020270832814,-1.12138954281807,0.809920644164085,1.70253144264221,2.19364976005065
4.4201897084713,-1.05154630601406,0.963594534695149,1.56048678696156,2.11409154798646
4.43017570837401,-0.867114599347115,1.06939697831869,1.37429623782635,1.94529889090127
4.44016270851716,-0.647122465968132,1.14278801321983,1.16686743199825,1.75679012206291
4.45014870841987,-0.375594143271446,1.25809335172176,0.99553465783596,1.64771329334289
4.4601357083302,-0.0370204764604568,1.39719802737236,0.85404899597168,1.63796597366698
4.47012170846574,0.160741712450981,1.578868971169,0.719274183511734,1.74241799729812
4.48010870837607,0.31433929681778,1.79891519129276,0.531704824380577,1.90200291252599
4.49009570851922,0.452002633810043,2.04616353571415,0.270089359469712,2.11282745579382
4.50008170842193,0.599841880202293,2.27868449807167,-0.0568319759890437,2.35699876887783
4.51006870833226,0.666773203611374,2.51637264490128,-0.366591112241149,2.6288984074391
4.5200547084678,0.822443625926971,2.80976370692253,-0.684476233720779,3.00660827529885
4.53004170837812,1.09530920684338,3.10539425253868,-1.0066602281481,3.44333276597417
4.54002770851366,1.46885390102863,3.24740031659603,-1.29714865922928,3.79285317972306
4.55001470842399,1.86547112345696,3.22261163055897,-1.59747393429279,4.0518059189219
4.56000170833431,2.29447548866272,3.12417843282223,-1.88440206885338,4.30999765722494
4.56998770846985,2.69122193455696,2.95747548401356,-2.17261542141438,4.5507795495881
4.57997470838018,3.13072497546673,2.71145447015762,-2.40829388022423,4.79096061654387
4.58996070851572,3.61663912117481,2.44990325152874,-2.55478768229485,5.06053797300926
4.59994770842604,4.10698428690434,2.19270119190216,-2.644020870924,5.35407366551208
4.60993470833637,4.60157102286816,2.02304773807526,-2.66370610713959,5.68880552086675
4.61992070847191,5.01604681134224,1.9385390996933,-2.60080410003662,5.97351164905399
4.62990770838223,5.29699558317661,1.93250535786152,-2.45561364233494,6.15002256311125
4.63989370851778,5.45358401834965,1.94572006523609,-2.09441651344299,6.15743337351236
4.6498807084281,5.48916666448116,1.88834192276001,-1.63928328037262,6.03191806650368
4.65986670833081,5.43232120335102,1.78463629066944,-1.21232894897461,5.84506474103353
4.66985370847397,5.35649334132671,1.57814420878887,-0.949607702493668,5.66430179704848
4.67984070838429,5.38246024131775,1.14203196823597,-0.76855444394052,5.55569898384892
4.68982670851983,5.4076529699564,0.562191658616066,-0.588919354453683,5.46860092807529
4.69981370843016,5.25714914739132,-0.00552094101905823,-0.297077731490135,5.2655391763099
4.70979970833287,4.94487099409103,-0.428907301425934,0.120284242630005,4.96489465350922
4.71978670847602,4.38146954655647,-0.461725968718529,0.642289742231369,4.45230304118739
4.72977370838635,3.58138859689236,0.0271462833881378,1.2085165643692,3.77989331714628
4.73975970852189,2.81869415938854,0.954861425757408,1.63890788912773,3.39747202720135
4.74974670843221,2.42589049100876,1.9688826406002,1.80664155587554,3.6090715202445
4.75973270833492,2.31013608634472,2.75838363826275,1.6201856893301,3.94593597276714
4.76971970847808,2.29596243560314,3.32841056585312,1.21373111128807,4.22171808759088
4.77970570838079,2.25819936275482,3.62385809361935,0.818027223944664,4.34752577723828
4.78969270852394,2.11867661118507,3.58053548812866,0.498007941842079,4.19011179739505
4.79967970843427,1.88128199458122,3.32271713197231,0.12493336379528,3.82037686984243
4.80966570833698,1.76502940714359,2.88993078768253,-0.206786196827888,3.39260803761289
4.81965270848013,1.68730470836163,2.36037243962288,-0.367019201517105,2.92456121954608
4.82963870838285,1.65011115431786,1.77561988413334,-0.283404638953507,2.44049400407259
4.839625708526,1.56660589814186,1.22299280852079,-0.0730094675347209,1.98879255633567
4.84961170842871,1.57219232797623,0.786106104254723,0.125884157605469,1.76227079202655
4.85959870833904,1.57955046415329,0.479145993590355,0.364624181985855,1.69041750643722
4.86958570848219,1.57622924566269,0.189585150182247,0.558172867298126,1.68285415703198
4.8795717083849,1.43791277468205,-0.0779138562083244,0.763129470348358,1.62973320058752
4.88955870852806,1.11501666247845,-0.292048248946667,1.01789850354195,1.53774890695143
4.89954470843077,0.780653575658798,-0.463998196721077,1.19904056668282,1.50413184671435
4.90953170834109,0.52409354031086,-0.665117272138596,1.32278636097908,1.57061095803033
4.91951870848425,0.205847133994102,-0.841448246240616,1.44183801054955,1.68205381671945
4.92950470838696,-0.134255579710007,-1.00271708518267,1.51046444177628,1.81795735468988
4.93949170853011,-0.356764939427376,-1.11836302399635,1.59490876078606,1.98034113997538
4.94947770843282,-0.504505952596664,-1.24646762520075,1.69197721838951,2.16124841340096
4.95946470834315,-0.662624604105949,-1.34621001452208,1.74327250242233,2.3000764741347
4.96945070847869,-0.832034813761711,-1.43928394675255,1.70283549785614,2.37980439184611
4.97943770838901,-1.01694131433964,-1.5559651350975,1.66161262750626,2.49322154297168
4.98942470853217,-1.21524203181267,-1.64328365296125,1.61141428112984,2.6026621650539
4.99941070843488,-1.36716146528721,-1.71166888654232,1.60310538768768,2.71456953002802
5.0093977083452,-1.48599150538445,-1.81067423433065,1.64926447749138,2.86474872434888
5.01938370848075,-1.66910758852959,-1.88004253104329,1.76638654589653,3.07255618177162
5.02937070839107,-1.86551439285278,-1.88463478803635,1.93959861516953,3.28542767721118
5.03935770853423,-2.00061255633831,-1.91441816568375,1.96593681335449,3.39593213533204
5.04934370843694,-2.01995163738728,-1.98229849219322,1.9369170820713,3.42948388425353
5.05933070834726,-2.06240300774574,-2.08211294844747,1.89786002039909,3.49150012938286
5.0693167084828,-2.23548292994499,-2.18611269548535,1.86211599111557,3.63922362761702
5.07930370839313,-2.44724569201469,-2.29562943667173,1.80778848722577,3.81143348389347
5.08928970852867,-2.70560550034046,-2.3823790204525,1.69638835787773,3.9841893003857
5.09927670843899,-2.97852136731148,-2.51513420462608,1.57305201485753,4.20380568583497
5.10926370834932,-3.14908406317234,-2.73301666259766,1.48671889901161,4.42678705153532
5.11924970848486,-3.23842951834202,-3.03586325705051,1.41863041162491,4.66008623370484
5.12923670839518,-3.29351730644703,-3.39763750612736,1.34292183279991,4.91880431811636
5.13922270853072,-3.26586640834808,-3.88046695321798,1.26596662759781,5.22748301521723
5.14920970844105,-3.26744924962521,-4.4327747708559,1.19226949095726,5.63446743775136
5.15919570834376,-3.37833467781544,-4.92814444899559,1.08913271985948,6.07338151172515
5.16918270848691,-3.48359391510487,-5.33609649896622,0.873026719093323,6.43207027821416
5.17916970839724,-3.55103336155415,-5.5987060636282,0.651459418907762,6.6618125833936
5.18915570853278,-3.44929005503654,-5.73137587845326,0.461161748953164,6.70514291440439
5.19914270844311,-3.14327251553535,-5.68566760897636,0.372644296064973,6.50736828818477
5.20912870834582,-2.61795983076096,-5.4620864546299,0.389071390628815,6.06955341523041
5.21911570848897,-1.93995763421059,-5.19068969428539,0.399960112161934,5.5557774628051
5.2291027083993,-1.3299971473217,-4.9912224572897,0.36838160276413,5.17850355173113
5.23908870853484,-0.710904479026794,-4.91658684253693,0.296594239845872,4.9765630209631
5.24907570844516,-0.0121423280239105,-4.90570926725864,0.100603757277131,4.90675574763769
5.25906170834787,0.592067422270775,-5.06192172646523,-0.143042702302337,5.09843668314681
5.26904870849103,1.10277844011784,-5.47522047042847,-0.352760108336806,5.59630227755984
5.27903470839374,1.40278971970081,-6.02814019918442,-0.366560706719756,6.2000532264193
5.28902170853689,1.28457597613335,-6.43984674632549,-0.0291143099963665,6.56678073318004
5.29900870844722,0.858197010755539,-6.34002600431442,0.714044433832169,6.43756874123605
5.30899470834993,0.367377635836601,-5.77262096822262,1.58302020192146,5.9970052634434
5.31898170849308,-0.0422929108142853,-4.7240435859561,2.41328740239143,5.30493473841661
5.32896770839579,-0.36713673055172,-3.35599889874458,2.96527274608612,4.49336849657094
5.33895437512547,-0.607848472595215,-1.92949988901615,3.06650091290474,3.67367356146341
5.34894037502818,-0.705229756236076,-0.756326819658279,2.61038651704788,2.80775658410778
5.35892737517133,-0.678752394318581,-0.0305189573764801,1.83045565724373,1.95248665365173
5.36891437508166,-0.744544680118561,0.334017516374588,1.02050285339355,1.30665242345556
5.37890037498437,-0.815501811504364,0.546186367571354,0.179261013865471,0.997746091838884
5.38888737512752,-0.758761015534401,0.55876402080059,-0.907488453984261,1.30823193805639
5.39887337503023,-0.757977488636971,0.47374024271965,-2.1193122035265,2.30009649946884
5.40886037517339,-0.817396309375763,0.448859755396843,-3.18627118527889,3.31993010057962
5.41884737508372,-0.867969462275505,0.627920502126217,-4.18850792169571,4.3233382651073
5.42883337498643,-0.826499839425087,0.825517507195473,-4.85226045370102,4.99089297118329
5.43882037512958,-0.681749677062035,0.861018584668636,-5.04163715064526,5.1598682913506
5.44880637503229,-0.513887225389481,0.747679372429848,-4.81687602818012,4.90157109458099
5.45879337517545,-0.303430731296539,0.474634574353695,-4.08912396669388,4.12774551091238
5.46877937507816,-0.134691197276115,0.0949935731291771,-2.84133867144585,2.84611506152038
5.47876637498848,0.0744601982831955,-0.204813930988312,-1.46065435051918,1.47682233161131
5.48875337513164,0.187231353521347,-0.431011129617691,-0.304507861509919,0.559956436981573
5.49873937503435,0.329713380932808,-0.426599405407906,0.74359392285347,0.918493270723925
5.5087263751775,0.392504875659943,-0.289314383268356,1.71786401152611,1.78572664534059
5.51871237508021,0.329905754327774,-0.0556982374191284,2.52650470018387,2.54856157477926
5.52869937499054,0.219501551985741,0.337206003069878,3.11292371213436,3.13881870413041
5.53868637513369,0.149081779718399,0.740798369050026,3.45740423619747,3.53901845899501
5.5486723750364,0.289731289744377,1.02619745671749,3.47052421867847,3.63064233887947
5.55865937517956,0.474626095890999,1.26316464185715,3.3681125754118,3.6283656326211
5.56864537508227,0.611190156340599,1.61902969479561,3.18897552251816,3.62827444428582
5.57863237499259,0.696924955844879,1.89416165649891,2.79071640193462,3.44407473947024
5.58861837512814,0.755126386284828,2.08660931110382,2.1602924144268,3.09693680792468
5.59860537503846,0.912211834788323,2.17576765537262,1.48106171786785,2.78561288298055
5.60859237518162,1.098142182827,2.31297549426556,1.0111256736517,2.75284344245993
5.61857837508433,1.24090546131134,2.45839574754238,0.680678467154503,2.83670216820423
5.62856537499465,1.31102059364319,2.57462319195271,0.332739315032959,2.9082941785978
5.63855137513019,1.31588313817978,2.63282345294952,-0.0252132669836283,2.94345774159897
5.64853837504052,1.26189813494682,2.6987016928196,-0.383641593083739,3.00375741393233
5.65852437517606,1.09125825583935,2.8048479527235,-0.732535668611527,3.09751918874168
5.66851137508638,0.874959223866463,3.00349774897099,-0.946599967852235,3.26842528913246
5.67849837499671,0.673843656778336,3.19199093163013,-1.11349404752255,3.44713509675173
5.68848437513225,0.538188838362694,3.34252632915974,-1.29451448857784,3.62462373881789
5.69847137504257,0.520094044804573,3.38897251725197,-1.41927477478981,3.71079148221575
5.70845737517811,0.590561764240265,3.31519702792168,-1.47874095797539,3.6777668974688
5.71844437508844,0.782855637073517,3.13413097858429,-1.46638637602329,3.54766528060445
5.72843137499876,1.05292566418648,2.84182691395283,-1.38728231906891,3.33304438853886
5.7384173751343,1.32398036241531,2.47435104489326,-1.32401778459549,3.10295990746753
5.74840437504463,1.71816514313221,2.06933371245861,-1.25397881224751,2.96760784709805
5.75839037518017,2.11395615398884,1.72160739898682,-1.26352424561977,3.0048687453036
5.7683773750905,2.54976375460625,1.49802682936192,-1.26865634679794,3.21789815128797
5.77836337499321,3.04659523665905,1.38320447087288,-1.35683235883713,3.61053890634956
5.78835037513636,3.50569755971432,1.41898241400719,-1.47095597505569,4.05797214776058
5.79833737504669,3.90065768122673,1.5730828589201,-1.59157233953476,4.4969792682548
5.80832337518223,4.31908034026623,1.72044087946415,-1.73796688511968,4.96335579010595
5.81831037509255,4.77176242053509,1.75210764527321,-1.88355305314064,5.42101188918187
5.82829637499526,5.1476196885109,1.65684422314167,-1.94142893984914,5.74563030187174
5.83828337513842,5.5400444573164,1.30608086585999,-1.83784536838532,5.98127205661999
5.84827037504874,5.87287323474884,0.665854606032372,-1.57124961063266,6.11578512757905
5.85825637518428,5.86785106122494,-0.0475887340307236,-1.13544573761523,5.9768869645823
5.86824337509461,5.49221072494984,-0.478164830803871,-0.482200067415833,5.53403443770343
5.87822937499732,4.86403499186039,-0.424028969407082,0.386967489346862,4.8977934630556
5.88821637514047,4.05625150501728,0.291545096039772,1.19564852379262,4.2388383087147
5.89820237504318,3.45079805195332,1.48974717199802,1.64641863763332,4.10341908195925
5.90818937518634,3.35268469691277,2.62515190601349,1.55301097556949,4.53252250924346
5.91817637509666,3.4144733941555,3.55844178378582,1.07820843994617,5.04813529216084
5.92816237499937,3.45613422095776,4.16524711310864,0.550515865311027,5.44033224945814
5.93814937514253,3.51542147934437,4.45504447638989,0.141664148122072,5.67676652636965
5.94813537504524,3.40128850758076,4.4319269245863,-0.286361027732491,5.59399163521701
5.9581223751884,3.19749783933163,3.98279293477535,-0.75191348746419,5.16255807584355
5.96810837509111,3.03514404952526,3.28706665813923,-1.14052696801722,4.61711039300489
5.97809537500143,2.89902496218681,2.49674003362656,-1.2734083789587,4.03232258462763
5.98808237514459,2.7476031267643,1.70613508164883,-1.21104490041733,3.45352712597782
5.9980683750473,2.7032022947073,0.994840008616447,-0.977138586491346,3.04167866581351
6.00805537519045,2.78595793783665,0.410703749656677,-0.63494315430522,2.88676150912682
6.01804137509316,2.77599896013737,-0.0425589591264725,-0.233461779356003,2.78612381169713
6.02802837500349,2.6773289501667,-0.351479641199112,0.204640853404999,2.7080447050336
6.03801537514664,2.60725591778755,-0.627612938582897,0.609192674383521,2.75005402420342
6.04800137504935,2.41471997022629,-0.795402007699013,0.980045383572578,2.72470656077369
6.05798837519251,2.19701234400272,-0.928281152844429,1.26278398811817,2.69873906465115
6.06797437509522,1.89074746727943,-1.09781561583281,1.45258753180504,2.62490678862039
6.07796137500554,1.41323869407177,-1.18871175259352,1.55263865411282,2.41266782368002
6.08794737514108,0.897513104081154,-1.18898774117231,1.62040729880333,2.20112276683299
6.09793437505141,0.386210932731628,-1.24502190113068,1.70190052807331,2.14375927433858
6.10792137519456,-0.0680060416460037,-1.42952815979719,1.73962500929832,2.25265859693157
6.11790737509728,-0.464757165312767,-1.70720249086618,1.6971713000536,2.45171980235403
6.1278943750076,-0.896126144528389,-2.00932286113501,1.54996764600277,2.69124880507961
6.13788037514314,-1.22977411687374,-2.24438882410526,1.3984727203846,2.91639358145657
6.14786737505347,-1.41240488111973,-2.47120553523302,1.30859107553959,3.13275516894618
6.15785437519662,-1.56622933745384,-2.68256805539131,1.30384430587292,3.36886563746081
6.16784037509933,-1.69727070271969,-2.90787472307682,1.25556443095207,3.59345311416355
6.17782737500966,-1.85977944374084,-3.23384296238422,1.13223145008087,3.89852125058659
6.1878133751452,-2.10152380406857,-3.45138277351856,1.03376199960709,4.17098420282781
6.19780037505552,-2.29768736422062,-3.5236566978693,1.00514631092548,4.32502518541862
6.20778637519106,-2.32719650745392,-3.56156361222267,1.02558408379555,4.37634569717122
6.21777337510139,-2.24220839738846,-3.71751996338367,1.02314170181751,4.46029955467943
6.22776037501171,-2.14876345932484,-3.86324953436852,1.11449859917164,4.55894598525621
6.23774637514725,-2.23213189065456,-3.94865338146687,1.21838549494743,4.69667323949039
6.24773337505758,-2.44272696375847,-3.99772496938705,1.20336224377155,4.83702394454155
6.25771937519312,-2.56869177639484,-4.05414709210396,1.10713636994362,4.92544790127613
6.26770637510344,-2.66225950598717,-4.18256773531437,0.991349805593491,5.05611243691851
6.27769237500615,-2.85092108845711,-4.29542279809713,0.879544025659561,5.22991450791459
6.28767937514931,-3.07235222160816,-4.39356392741203,0.705616257190704,5.40746210900166
6.29766637505963,-3.27248487174511,-4.54202970296145,0.420425330400467,5.61390670717166
6.30765237519518,-3.4416085678339,-4.735964012146,0.123797268066555,5.8557109237146
6.3176393751055,-3.55766234993935,-4.951995241642,-0.0883151940442622,6.09811592567081
6.32762537500821,-3.58518577873707,-5.13307415485382,-0.0974637293815613,6.2619091757891
6.33761237515137,-3.56486670434475,-5.27083338618279,0.0202173511125147,6.36320422003969
6.34759958344512,-3.53108733952045,-5.3152979528904,0.112667659521103,6.38229301496135
6.35758558334783,-3.42498317956924,-5.27250978291035,0.163717360496521,6.28940955617819
6.36757258349098,-3.21143994033337,-5.19610655486584,0.11256944457069,6.10946329064502
6.37755858339369,-2.9566621363163,-5.11732877254486,0.0118312926962972,5.91007992620479
6.38754558353685,-2.67171153008938,-5.04661137700081,-0.11827981710434,5.71142005158269
6.39753158343956,-2.33910260796547,-5.04171433389187,-0.216501309089363,5.56211805448239
6.40751858334988,-2.02411485493183,-5.05026062428951,-0.327013648375869,5.4506065025306
6.41750558349304,-1.63320685386658,-5.11256738483906,-0.418293435573578,5.38337062538711
6.42749158339575,-1.19607310473919,-5.22772654294968,-0.335673447847366,5.37330367123716
6.43747858353891,-0.712537606358528,-5.30736912846565,-0.0391857004165649,5.35512954328675
6.44746458344162,-0.465966369509697,-5.32538323044777,0.409334258660674,5.36137908974563
6.45745158335194,-0.450144973397255,-5.16508649110794,0.929300322532654,5.26729038948489
6.46743758348748,-0.542186579704285,-4.7492977103591,1.42319357872009,4.9875119038799
6.47742458339781,-0.548594543337822,-3.98702398002148,1.90569645881653,4.4529759917826
6.48741158354096,-0.514124037623406,-2.91289163410664,2.18995183110237,3.68037365231565
6.49739758344367,-0.503113730549812,-1.84389957547188,2.09426799416542,2.83532141064797
6.507384583354,-0.314218259453773,-0.941596139967442,1.82186960577965,2.07473980678046
6.51737058348954,0.0267170977592468,-0.225454017519951,1.55884781241417,1.57529356616378
6.52735758339986,0.361937386393547,0.292253193855286,1.27863988280296,1.36063608319138
6.53734458354302,0.742268359065056,0.58154506534338,0.93775656580925,1.32986629275756
6.54733058344573,1.15342059016228,0.648233729302883,0.519471316337585,1.42142058311878
6.55731758335605,1.38639822006226,0.612639973461628,0.064321711063385,1.51709098085414
6.56730358349159,1.42085293829441,0.597583977878094,-0.534081169366837,1.63131001907936
6.57729058340192,1.18850446879864,0.577421024143696,-1.12760337889194,1.73708010510915
6.58727658353746,0.848208796977997,0.594584063887596,-1.65698572576046,1.95412130321377
6.59726358344778,0.611638053059578,0.600294454693794,-2.0132296782732,2.18804668089295
6.60725058335811,0.435813447833061,0.657476715445519,-2.14904763400555,2.2892388966401
6.61723658349365,0.386145443916321,0.714747269153595,-2.07752039909363,2.23070907365125
6.62722358340398,0.357974728345871,0.603171284794807,-1.69379511773586,1.83327668555545
6.63720958353952,0.34951790034771,0.472306505441666,-0.990262808203697,1.15145847821685
6.64719658344984,0.168472316265106,0.333904372751713,-0.292940826416016,0.475067762820993
6.65718358336017,-0.103516767024994,0.202102577090263,0.120791780948639,0.257199974857263
6.66716958349571,-0.372164751291275,0.140104841887951,0.47667905330658,0.620772815678491
6.67715658340603,-0.736381382346153,0.176394708752632,0.85355198264122,1.14101867671512
6.68714258354157,-1.13623854696751,0.299180682599545,1.13429142415524,1.63314547771093
6.6971295834519,-1.44027446508408,0.330636071562767,1.29041792929173,1.96185860316926
6.70711558335461,-1.70079306542873,0.359108503460884,1.39200160682201,2.22695407273331
6.71710258349776,-1.84013513803482,0.37435190230608,1.60231835246086,2.46853413499257
6.72708958340809,-1.85062679708004,0.356374930143356,1.83050594329834,2.62727513621165
6.73707558354363,-1.77992869734764,0.394891416728497,2.01369336247444,2.71644001529964
6.74706258345395,-1.69501192331314,0.559284130632877,2.06757954776287,2.73143723070452
6.75704858335666,-1.54912447750568,0.754401331543922,1.94984469115734,2.60207654297043
6.76703558349982,-1.38242094397545,0.949059818387032,1.60804686963558,2.32327719830493
6.77702158340253,-1.213103120327,1.19206308424473,1.13580936133862,2.04516417010239
6.78700858331285,-0.898928714990616,1.49641007423401,0.761514469385147,1.90452624869983
6.79699558345601,-0.56875866651535,1.82203566670418,0.5088697296381,1.97541104411725
6.80698158335872,-0.229883283376694,2.07302973747253,0.243893212080002,2.09994821729494
6.81696858350188,0.0862897002696991,2.33520602345467,-0.0735111951828003,2.3379557267341
6.82695458340459,0.338851994276047,2.63365258812904,-0.350503740906715,2.6783949487283
6.83694158331491,0.705114566087723,2.87998935163021,-0.665622471570969,3.03884492718413
6.84692858345807,1.18687894284725,3.03872956216335,-0.94763141669333,3.39714060333745
6.85691458336078,1.66970341980457,3.12647404968739,-1.18615564227104,3.73760815243749
6.86690158350393,2.19208314120769,3.07997640609741,-1.44712974071503,4.04792139826673
6.87688758340664,2.75786557495594,2.93761950910091,-1.72803524315357,4.38423730098613
6.88687458331697,3.30839788556099,2.70120839416981,-1.94768999218941,4.69420064159944
6.89686058345251,3.80491069436073,2.45573409497738,-2.13806773245335,5.00792461663045
6.90684758336283,4.36462430298328,2.20851849496365,-2.25073378399014,5.38454286037203
6.91683458350599,5.01273553311825,2.07969497859478,-2.21199466466904,5.86050928891875
6.9268205834087,5.59527784109116,2.1280257242918,-2.07976660698652,6.33727518274136
6.93680758331902,6.20527867376804,2.30437599420548,-1.82361383020878,6.8659449126482
6.94679358345456,6.6916828161478,2.54699217438698,-1.53902165830135,7.32354939309055
6.95678058336489,6.95245284676552,2.72904289484024,-1.3305760216713,7.58648194210087
6.96676658350043,7.12971060454846,2.79872942626476,-1.12033821344376,7.74085379131742
6.97675358341076,7.13644016504288,2.66891539156437,-0.975040240064263,7.68131441006752
6.98674058332108,7.04940962255001,2.31398881673813,-0.920987336039543,7.47642547903977
6.99672658345662,6.91322913944721,1.7394168484211,-0.953263966441154,7.19214990783621
7.00671358336695,6.81606654167175,0.978402900695801,-0.927830332517624,6.94815835042113
7.01669958350249,6.58633177757263,0.249883099794388,-0.705907448530197,6.62876407588295
7.02668658341281,6.05924446284771,-0.212474368214607,-0.257408539429307,6.06843043742531
7.03667358332314,5.17151550471783,-0.132359912395477,0.283173491209745,5.18095348252328
7.04665958345868,4.20297510266304,0.502813768386841,0.653102925047278,4.28303220043815
7.056646583369,3.44869071543217,1.57307350337505,0.739753398522735,3.86202835157313
7.06663258350454,2.95604350090027,2.67881355822086,0.488671692609787,4.01908388592236
7.07661958341487,2.63547516524792,3.50273477554321,0.0338092587143183,4.3836084816522
7.08660558331758,2.42600977420807,4.07181270003319,-0.360788408517838,4.75345667534958
7.09659258346073,2.18623241722584,4.34703880190849,-0.588469630479813,4.90129115982964
7.10657958337106,1.90075263798237,4.24286656200886,-0.817099782451987,4.7204268142079
7.1165655835066,1.63960253834724,3.83925139188766,-0.890197652578354,4.26855942848663
7.12655258341692,1.48501852869988,3.2454508548975,-0.7749448659271,3.65222820034067
7.13653858331963,1.42443026483059,2.61225762605667,-0.548122746124864,3.02544707920599
7.14652558346279,1.41342580497265,1.96658526957035,-0.328493651747704,2.4440004516964
7.1565115833655,1.49193286120892,1.30189309000969,-0.13288681961596,1.98455238958251
7.16649858350866,1.60042736291885,0.671445128917694,0.0680896202847362,1.73690601401377
7.17648558341898,1.70555152952671,0.0503421878814697,0.324216961674392,1.73682382353219
7.18647158332169,1.74189665257931,-0.480454308092594,0.624899538159371,1.91194657959461
7.19645858346485,1.56033242046833,-0.87338866174221,1.005124091506,2.05127264305606
7.20644458336756,1.43589899361134,-1.15616731971502,1.33487840294838,2.27605561041225
7.21643158351071,1.2787603354454,-1.37218100756407,1.63590709805489,2.48883521883116
7.22641858342104,1.19371492266655,-1.45956793785095,1.95249406456947,2.71431887477841
7.23640458332375,1.16051794052124,-1.47084897100925,2.29593846201897,2.96336498041815
7.2463915834669,1.02226754307747,-1.41445374548435,2.64927284002304,3.17243706141321
7.25637758336961,0.785054190158844,-1.38967207610607,2.92514096617699,3.33225872834055
7.26636458351277,0.558239525556564,-1.3296539157629,3.09596269369125,3.41534711329979
7.27635058341548,0.377241888642311,-1.30021084606648,3.17270038247108,3.44947639558636
7.2863375833258,0.257359934449196,-1.30256376564503,3.2108639895916,3.4745581099022
7.29632458346896,0.115236926078796,-1.4141786339879,3.23471361279488,3.53221643090574
7.30631058337167,-0.071644179224968,-1.52355167984962,3.2046203327179,3.54907510296111
7.31629758351482,-0.21220831990242,-1.67667213141918,3.04892418265343,3.48600064240993
7.32628358341754,-0.333844438791275,-1.89166021764278,2.85184144020081,3.43843424953434
7.33627058332786,-0.377726038098335,-2.17073334887624,2.72870609521866,3.5072207210075
7.34625720838085,-0.452193837761879,-2.45259180128574,2.58690760731697,3.59329608847341
7.356244208524,-0.590981009602547,-2.7670711389184,2.48166123390198,3.76358655027328
7.36623120843433,-0.765018121004105,-3.06379540622234,2.33404476642609,3.9268129556085
7.37621720833704,-1.01729039311409,-3.32248441278935,2.19239713668823,4.10857488943662
7.38620420848019,-1.28671196401119,-3.57572556853294,2.11856317520142,4.35083336236971
7.3961902083829,-1.52967897713184,-3.85207930594683,2.04768088817596,4.62292437448246
7.40617720852606,-1.86651075839996,-4.12773488581181,2.01363021254539,4.95749577222676
7.41616420843639,-2.23994318604469,-4.39813323408365,1.94232575654984,5.30410697158495
7.4261502083391,-2.57573240876198,-4.63848624944687,1.81056927680969,5.60607824008742
7.43613720848225,-2.89273803591728,-4.83072077304125,1.63282444596291,5.86258579492607
7.44612320838496,-3.18383874356747,-5.00220937550068,1.34322004079819,6.07973419315269
7.45611020852812,-3.48002535939217,-5.2489928662777,1.07522102437913,6.38894379874433
7.46609620843083,-3.88350136578083,-5.5320004427433,0.796138172149658,6.80576577217343
7.47608320834115,-4.30324257194996,-5.73747861742973,0.470498473271728,7.18734487358558
7.48607020848431,-4.57905339539051,-6.02044935643673,0.160842942371964,7.56567319564939
7.49605620838702,-4.77414223730564,-6.35280041635037,-0.101403546743095,7.94737629103462
7.50604320853017,-4.88439558148384,-6.57435901880264,-0.387503130845726,8.19937042588916
7.51602920843288,-4.67382857501507,-6.71845078468323,-0.586282735280693,8.2052411262879
7.52601620834321,-4.40338549554348,-6.8182159781456,-0.701282300949097,8.14675823948564
7.53600220847875,-4.05695375561714,-6.85576094985008,-0.785013259649277,8.00478468133469
7.54598920838907,-3.65737199485302,-6.7795120882988,-0.857809925079346,7.75074137948683
7.55597620853223,-3.32508466959,-6.63263997137547,-1.00153682470322,7.48673340389963
7.56596220843494,-2.81771708965302,-6.42106958270073,-1.19095035910606,7.11252605907789
7.57594920834526,-2.36543262004852,-6.15899094521999,-1.80646687030792,6.84045053317481
7.58593520848081,-2.08205316066742,-6.04892646610737,-2.52144451975822,6.87620092946957
7.59592220839113,-1.97169573605061,-6.03199819207191,-2.95819059848785,7.00167679071956
7.60590920853429,-1.79864855825901,-5.99057651638985,-3.12752128601074,6.99310610739598
7.615895208437,-1.30711757719517,-6.18045958220959,-3.23223556280136,7.09605409656499
7.62588220834732,-0.831657668352127,-6.57263818323612,-2.91980011940002,7.2399212635436
7.63586820848286,-0.259040424227715,-6.53079667747021,-2.19515234470367,6.894715440125
7.64585520839319,0.170477911233902,-6.03419966876507,-1.18533812843263,6.15188221924472
7.65584120852873,0.453566763997078,-5.29744581878185,-0.260612740516663,5.32321087435504
7.66582820843905,0.866505319476128,-4.05410060673952,0.32626878619194,4.15848704688248
7.67581520834938,1.37928215861321,-2.4729085367918,0.573292670622468,2.88900681733289
7.68580120848492,1.50992298960686,-1.19336043521762,0.640387131348252,2.02831758876231
7.69578820839524,1.52715297996998,-0.361288637816906,0.381765879392624,1.61507612536227
7.70577420853078,1.77628295838833,0.186137047111988,0.0163276918977499,1.78608363244588
7.71576120844111,1.96941298305988,0.808334294557571,-0.113251211643219,2.13185779697929
7.72574720834382,2.10556773841381,1.2202738532424,-0.241348503828049,2.44555369563952
7.73573420848697,2.19149198770523,1.30530786395073,-0.483438471145928,2.59618537613394
7.7457212083973,2.20734203517437,1.16770270675421,-0.722477288246155,2.59958879510594
7.75570720853284,1.96636190593243,0.958577916026115,-0.84477882027626,2.34501642241212
7.76569420844317,1.67283168017864,0.78778864055872,-0.892233653068542,2.05306056025405
7.77568020834588,1.53786858737469,0.546092227399349,-0.868457704782486,1.84864147358428
7.78566720848903,1.45625958323479,0.334733507931232,-0.723873603343964,1.66034077487523
7.79565420839936,1.38387046873569,0.247850607633591,-0.455371799468994,1.4777993347186
7.8056402085349,1.3726701271534,0.280048885345459,0.120352106876671,1.40610642761926
7.81562720844522,1.14219452083111,0.371587046384811,0.631287621259689,1.35691168364537
7.82561320834793,0.559927031993866,0.46095822930336,0.740496068000793,1.03650142163172
7.83560020849109,0.332135297656059,0.452627408802509,1.58770849943161,1.68404385522341
7.8455862083938,0.245369049310684,0.422120438218117,2.42008537530899,2.46884686817663
7.85557320853695,-0.44421648144722,0.50367740213871,2.14523115634918,2.2478958877105
7.86556020844728,-0.93085568189621,0.553496264219284,2.16768329501152,2.42315935969865
7.87554620834999,-1.27619516193867,0.563119027018547,2.63768950581551,2.9838202122506
7.88553320849314,-1.60943733751774,0.542479817569256,2.6372135424614,3.13679265562899
7.89551920839585,-1.84563269019127,0.578573802709579,2.64826361060143,3.27939138004603
7.90550620853901,-1.88329343676567,0.622892189025879,2.73747691869736,3.38061661957029
7.91549220844172,-1.81599490821362,0.690875426530838,2.76367361426353,3.37831884342174
7.92547920835204,-1.69890616893768,0.786980262994766,2.69804680466652,3.28406404708694
7.9354662084952,-1.51615144371986,0.969048525094986,2.58569723367691,3.15017466635217
7.94545220839791,-1.22594652950764,1.20588005483151,2.38548389196396,2.94068444391298
7.95543920854107,-0.862911036014557,1.49447172224522,2.14815944194794,2.75547639668649
7.96542520844378,-0.539272327423096,1.7702819609642,1.87278715968132,2.63287762911739
7.9754122083541,-0.284514988660812,1.95021832823753,1.61708023309708,2.54936242751782
7.98539820848964,0.0212996524572372,2.23374162912369,1.30341862857342,2.58630150256832
7.99538520839997,0.446696870326996,2.48824285984039,1.04433727383614,2.73523874004265
8.00537220854312,0.859140751361847,2.74671376526356,0.861993607878685,3.00426235854371
8.01535820844583,1.1117685341835,3.10484110593796,0.666012480854988,3.36446729682088
8.02534520835616,1.3649827927351,3.48680812954903,0.334589374065399,3.75938279588413
8.0353312084917,1.72149045467377,3.72806015431881,-0.0814867973327637,4.10714036744449
8.04531820840202,2.12049275636673,3.89150795817375,-0.434541093707085,4.45299333936775
8.05530520831235,2.62713528156281,3.90990212917328,-0.774289466142654,4.77375100154221
8.06529120844789,3.09675323724747,3.76373460173607,-0.998033173084259,4.97510291142652
8.07527820835821,3.65345085203648,3.54040546238422,-1.14722663462162,5.21519922126771
8.08526420849375,4.25267292737961,3.19684178173542,-1.16784040868282,5.44691432141806
8.09525120840408,4.8616978597641,2.81896313130856,-1.0396454679966,5.715200951361
8.10523720853962,5.52647950172424,2.46051477849484,-0.829800592660904,6.10611805337484
8.11522420844995,6.07683873474598,2.30911925554276,-0.508653967380524,6.52063874194541
8.12521120836027,6.46790694952011,2.38715093314648,-0.173831910677254,6.89655909990209
8.13519720849581,6.70416896045208,2.61483157038689,0.123409579396248,7.19711438814667
8.14518420840614,6.81697286009789,2.84620297014713,0.324592316374183,7.394413465207
8.15517020854168,6.89594126164913,2.95748776316643,0.442505549602211,7.51641875595173
8.165157208452,6.97053009867668,2.89614286959171,0.504038138799369,7.56505041774401
8.17514320835471,6.99959368407726,2.59311150312424,0.473192322067916,7.47946856290429
8.18513020849787,6.88646234035492,2.04881466329098,0.36802254717797,7.19419527708791
8.19511720840819,6.71762808144093,1.26749684393406,0.278893438987434,6.84184601114763
8.2051032083109,6.4661960542202,0.43472001850605,0.302134951762855,6.48783156649273
8.21509020845406,6.01497987091541,-0.240574332475662,0.460693898610771,6.03739163258281
8.22507620835677,5.30127516031265,-0.619996647834778,0.767907230257988,5.39236457251889
8.23506320849992,4.31803251922131,-0.304232384562492,1.26951354861259,4.51105606604265
8.24504920840263,3.3018747317791,0.65733755171299,1.77345232129097,3.80520729227011
8.25503620831296,2.58936285316944,1.90341779887676,2.10539758443832,3.84193939189745
8.26502320845611,2.19012081563473,2.96699475109577,2.05147456169128,4.21998044040169
8.27500920835882,1.8965139913559,3.69285874664783,1.65759383618832,4.47007699798019
8.28499620850198,1.69070194065571,4.01384457349777,1.11879754520953,4.49679099575479
8.29498220840469,1.5834873944521,3.9660967952013,0.60021208204329,4.31249471428377
8.30496920831502,1.40624893248081,3.62177882373333,0.21082362614572,3.89092077913286
8.31495620845817,1.30995055317879,3.09172287762165,-0.089192915931344,3.35896951162627
8.32494220836088,1.24641178429127,2.51011086165905,-0.303540001139045,2.818924512315
8.33492920850404,1.15537472963333,1.7960021084547,-0.527610055804253,2.19974696509276
8.34491483331658,1.16179321825504,1.12309926867485,-0.724127372503281,1.77072750610869
8.35490183345974,1.19476098954678,0.560942108631134,-0.752908464297652,1.51953316087191
8.36488783336245,1.23964304745197,0.209721499085426,-0.639295456185937,1.41045973801971
8.3748748335056,1.36939919471741,0.0528974211215973,-0.429704350009561,1.43620963653331
8.38486183341593,1.56942367136478,-0.0737842601537705,-0.0600725759938359,1.57230515221222
8.39484783331864,1.76006745994091,-0.21986817240715,0.530028427653015,1.85124542157458
8.40483483346179,1.80727729439735,-0.303686839342117,1.15997298002243,2.16887395429424
8.4148208333645,1.71350959002972,-0.300707390606403,1.56671874940395,2.34118510366502
8.42480783350766,1.60457713186741,-0.327806603908539,1.78240382373333,2.42055537687884
8.43479483341798,1.41925957202911,-0.32413455247879,1.88087561309338,2.37845622470464
8.44478083332069,1.37055109620094,-0.306595244407654,1.79388366222382,2.27825142264512
8.45476783346385,1.32059423983097,-0.258172697424889,1.73665462374687,2.19695051609083
8.46475383336656,1.13684373378754,-0.216354580521584,1.7864389872551,2.12851761438558
8.47474083350971,0.910177003741264,-0.191795397698879,1.75160595417023,1.98326273383092
8.48472683341242,0.694865566492081,-0.267188519239426,1.70035043120384,1.85618410972748
8.49471383332275,0.448543421030045,-0.380343251824379,1.66717099070549,1.76785500027791
8.5047008334659,0.169180998802185,-0.550225331783295,1.63385355591774,1.73229546217635
8.51468683336861,-0.0634428745508194,-0.794488380253315,1.59379545092583,1.78197102223371
8.52467383351177,-0.320112837553024,-1.08676291644573,1.62202931642532,1.97851079569233
8.53465983341448,-0.600586815476418,-1.38047499060631,1.66905964136124,2.24770456444669
8.54464683332481,-0.859888025522232,-1.70957938402891,1.68787832021713,2.55166657512148
8.55463283346035,-1.1172584849596,-1.99895925611258,1.71123326897621,2.85874516714299
8.56461983337067,-1.41672012627125,-2.2588457724452,1.73435432910919,3.18079629633452
8.57460683351383,-1.73821583032608,-2.49485342949629,1.78616416811943,3.52648129768745
8.58459283341654,-2.02987026929855,-2.75839474797249,1.76510249733925,3.8528822616241
8.59457983332686,-2.31065531909466,-3.05697901457548,1.7675782084465,4.22002149546543
8.6045658334624,-2.55895382344723,-3.25418659508228,1.85566534280777,4.53668038665347
8.61455283337273,-2.77440559387207,-3.41135858237743,1.96313482761383,4.81545347067742
8.62453883350827,-2.93726692199707,-3.57573960185051,1.99939575076103,5.04093582973057
8.63452583341859,-3.08230242848396,-3.74073545604944,1.99537052750587,5.24167850548111
8.64451283332892,-3.25022335231304,-3.91903021752834,1.93678493499756,5.44737419040172
8.65449883346446,-3.40577215254307,-4.12062437921763,1.77309914946556,5.63229170262656
8.66448583337478,-3.41132759213448,-4.43924354553223,1.54215985894203,5.80709016874541
8.67447183351032,-3.32987587809563,-4.817009344697,1.30645391821861,5.99987285122361
8.68445883342065,-3.36256473720074,-5.22478246986866,1.15264875769615,6.31931900032996
8.69444583333097,-3.46121428191662,-5.62120439529419,1.0302571054548,6.68127030304555
8.70443183346652,-3.58159266471863,-5.89399220824242,0.955217521190643,6.96271431839467
8.71441883337684,-3.57934265613556,-5.96423071682453,0.94324600495398,7.01950531871061
8.72440483351238,-3.34333909213543,-5.95457930266857,0.921582070961595,6.89088125498385
8.73439183342271,-3.07231713831425,-5.86472689390183,0.901440751925111,6.68182232386241
8.74437783332542,-2.8376227658987,-5.70855945825577,0.839482485428452,6.42996772101767
8.75436483346857,-2.5718539506197,-5.64235669791699,0.727290716171265,6.24336236619946
8.7643518333789,-2.4053802126646,-5.62073778748512,0.658596457242966,6.14917039417795
8.77433783351444,-2.27153452277184,-5.59567311286926,0.660628949403763,6.07518372421959
8.78432483342476,-1.9444950735569,-5.6575711530447,0.655529081001878,6.0182132580102
8.79431083332747,-1.5106860512495,-5.88699718415737,0.593877135515213,6.10668471789762
8.80429783347063,-1.12263266086578,-6.22274138331413,0.559660398960114,6.34791573487055
8.81428383337334,-0.865354587435722,-6.43262777388096,0.667182435616851,6.52477363911549
8.82427083351649,-0.676967824101448,-6.39971496641636,0.915469318628311,6.50020931659835
8.83425783342682,-0.372216206789017,-6.08210999965668,1.21638457775116,6.21371051735684
8.84424383332953,0.0758348786830902,-5.26196608364582,1.52648113489151,5.47943269412477
8.85423083347268,0.457002003192902,-3.99550127327442,1.72715874552727,4.37675205922282
8.86421683337539,0.987228688001633,-2.72851986140013,1.72741485357285,3.37689253498131
8.87420383351855,1.71448081254959,-1.48222326725721,1.47556708931923,2.70439059783926
8.88418983342126,2.43935253560543,-0.155222233235836,0.954409435987473,2.62401069093807
8.89417683333159,2.98754479050636,1.00836549550295,0.241419858131558,3.16235804356541
8.90416383347474,3.3012689602375,1.80273897796869,-0.685535749197006,3.82337597339607
8.91414983337745,3.25305808246136,2.28186976879835,-1.58305060744286,4.27730823712159
8.92413683352061,3.02940676152706,2.55744027167559,-2.3149044907093,4.59092462049641
8.93412283342332,2.6577600735426,2.58454211622477,-2.90666844248772,4.71086701081772
8.94410983333364,2.30493031024933,2.46957299262285,-3.35152577877045,4.75859428263864
8.9540968334768,1.96688289284706,2.19883638292551,-3.62995323121548,4.67761373072457
8.96408283337951,1.54257384181023,1.91955699115992,-3.77207097709179,4.50474777939523
8.97406983352266,1.10850988090038,1.69903159171343,-3.81790554642677,4.32341361277525
8.98405583342537,0.751444979310036,1.27911175310612,-3.71130144953728,3.99681809483519
8.9940428333357,0.224689201712608,0.827966613471508,-3.259901663661,3.37090088954414
9.00402883347124,-0.359519562721252,0.53120726287365,-2.57162123143673,2.65040963439336
9.01401583338156,-0.766577573418617,0.181200535297394,-1.8981728464365,2.05512407533202
9.02400283352472,-1.27425856411457,-0.0572930654883385,-1.20259976685047,1.75307261195912
9.03398883342743,-1.87692523419857,-0.0686123979091644,-0.429761579632759,1.92672027322252
9.04397583333775,-2.20448683977127,-0.110927235782146,0.142563906703144,2.2118751198604
9.0539618334733,-2.50000394940376,-0.26148953050375,0.598984678387642,2.58402383242505
9.06394883338362,-2.81899879932404,-0.415415143668652,0.92869805932045,2.99696580854123
9.07393483351916,-3.02720762372017,-0.485864444375038,1.19108309090138,3.28918366541739
9.08392183342949,-3.18436499297619,-0.49779071778059,1.40934503316879,3.51770229407184
9.09390883333981,-3.21501668214798,-0.444258581399918,1.5813303565979,3.61030520182648
9.10389483347535,-3.10528666377068,-0.394764239788055,1.68651007175446,3.55569406604908
9.11388183338568,-2.90829338371754,-0.269433850049973,1.79195934355259,3.42664315245597
9.12386783352122,-2.58728416800499,-0.0675444039702416,1.88734497249126,3.20322847416556
9.13385483343154,-2.15592220544815,0.165006379187107,1.90279273152351,2.88025135018727
9.14384183334187,-1.6967035228014,0.451041643917561,1.83165784478188,2.5371661098922
9.15382783347741,-1.23397358715534,0.731847158968449,1.60078228890896,2.14960345514512
9.16381483338773,-0.767699654102325,1.00633855819702,1.29475305497646,1.81065334230321
9.17380083352327,-0.382014970779419,1.34686461031437,1.0153251439333,1.72941171047268
9.1837878334336,-0.0206003254652023,1.70318516135216,0.680391368865967,1.83417460512536
9.19377383333631,0.297494053244591,2.04782589912415,0.268308261036873,2.08664394370006
9.20376083347946,0.592652728557587,2.38806953072548,-0.14902389228344,2.4650195659908
9.21374783338979,0.922902299165726,2.64666965961456,-0.573675553612411,2.86106843359996
9.22373383352533,1.26889783680439,2.70340460836887,-1.02236168324947,3.15653633088131
9.23372083343565,1.59092739164829,2.67206470191479,-1.39832829415798,3.40973631751175
9.24370683333837,1.93838648736477,2.49432571828365,-1.66839481294155,3.57247032389912
9.25369383348152,2.33982532382011,2.19390396416187,-1.8155475962162,3.68567635910717
9.26367983338423,2.70980321645737,1.84476554811001,-1.83227531075478,3.75545286401225
9.27366683352739,3.10978492677212,1.5064076435566,-1.74430862903595,3.87074138540333
9.28365383343771,3.54983234345913,1.14312013506889,-1.61594002604485,4.0643936174591
9.29363983334042,3.97164872646332,0.845850614905357,-1.40649568498135,4.29740467969036
9.30362683348358,4.44104448795319,0.667193618416786,-1.20700045444071,4.65025521508826
9.31361283338629,4.86145870864391,0.691582939624786,-0.972155735492706,5.00571218831858
9.32359983352944,5.25671002149582,0.779761875271797,-0.745083793401718,5.36620710478191
9.33358683343977,5.78950071036816,0.751481232047081,-0.607257903814316,5.86956597025856
9.34357283334248,6.38351993322373,0.486140432953835,-0.539063070192933,6.42465938801918
9.35355983348563,6.98427982628346,-0.0460438996553421,-0.533180186524987,7.00475308942638
9.36354583338834,7.43097201883793,-0.721574478149414,-0.450657847300172,7.47951250868678
9.3735328335315,7.48955936551094,-1.21131679594517,-0.100694389119744,7.58755080573776
9.38351883343421,6.96065181255341,-1.20314414262772,0.416829219684005,7.07615545914056
9.39350583334453,6.00835906863213,-0.464243195056915,0.74719931602478,6.07241362718635
9.40349283348769,5.14836462378502,0.886532617807388,0.676205931901932,5.26771799209267
9.4134788333904,4.70929603099823,2.38891913115978,0.26213762126863,5.28707100910147
9.42346583353356,4.41407479047775,3.48110709428787,-0.242666466236115,5.6268152512472
9.43345183343627,4.22330996453762,4.23186327159405,-0.760118665918708,6.02683948619071
9.44343883334659,4.01832412540913,4.72335098326206,-1.21433871008456,6.3191448623004
9.45342483348213,3.74908089458942,4.78936370909214,-1.6002987241745,6.2892422674547
9.46341183339246,3.41000670611858,4.55558501064777,-1.92192014336586,6.00626985428459
9.47339883353561,3.02852967917919,4.06306468069553,-2.07833023846149,5.47722038969477
9.48338483343832,2.5756277436018,3.40344086766243,-2.16413052678108,4.78547060906572
9.49337183334865,2.14707536816597,2.66208292007446,-2.122439879179,4.02509244001509
9.50335783348419,1.84266990602016,1.84094263851643,-1.98510398626328,3.27492595597802
9.51334483339451,1.61932731807232,1.12071243524551,-1.74578738987446,2.63172774735798
9.52333083353005,1.39920771539211,0.491522794961929,-1.35181193947792,2.00668194004308
9.53331783344038,1.14783299088478,-0.0485032385587692,-0.872097011804581,1.44236830841248
9.5433048333507,0.836746500134468,-0.455959152281284,-0.325906843543053,1.00710412803471
9.55329083348624,0.490929302573204,-0.723276310265064,0.213956637382507,0.899954245390113
9.56327783339657,0.183059365153313,-0.882643049955368,0.642803127765655,1.10714287509344
9.57326383353211,-0.0866358554363251,-1.00556935697794,0.917442169189453,1.36395587793274
9.58325083344243,-0.343748452663422,-0.983915655612945,1.10348419904709,1.51787034809148
9.59323783335276,-0.606099570393562,-0.854381994903088,1.16493492722511,1.56665205681249
9.6032238334883,-0.879148169159889,-0.67813492834568,1.14613262057304,1.59574072716128
9.61321083339863,-1.04918461561203,-0.560218808054924,1.0951203417778,1.61676282537389
9.62319683353417,-1.16689432919025,-0.486860225200653,1.10114063501358,1.67665916406911
9.63318383344449,-1.32719516158104,-0.466130383908749,1.19069542050362,1.84295418177863
9.6431698333472,-1.44111295580864,-0.519022542536259,1.28189210414887,1.99735783417482
9.65315683349036,-1.55757545828819,-0.687418260276318,1.34912455916405,2.17226201204242
9.66314383340068,-1.61869055628777,-0.943323115110397,1.40492453813553,2.34175800935368
9.67312983353622,-1.62306836664677,-1.22188710004091,1.45404582738876,2.49832109149374
9.68311683344655,-1.58376689136028,-1.55388849645853,1.49329350829124,2.6744742525401
9.69310283334926,-1.5863390815258,-1.86449332281947,1.57560958698392,2.91124588501386
9.70308983349241,-1.67194348812103,-2.11652191221714,1.6738906109333,3.1744243272972
9.71307583339512,-1.73826319277287,-2.32580940172076,1.80393283322454,3.41835076714885
9.72306283353828,-1.79910814940929,-2.45076849326491,1.9307003223896,3.60148026174325
9.7330498334486,-1.81709009170532,-2.51395716011524,2.06021731853485,3.72374709182287
9.74303583335131,-1.87998508214951,-2.56912066966295,2.20955754518509,3.87516057343156
9.75302283349447,-2.03184545874596,-2.61970522463322,2.38782160878181,4.08569987487609
9.76300883339718,-2.20847990334034,-2.72492031544447,2.46252797484398,4.28562926953199
9.77299583354034,-2.27790097117424,-2.89895771920681,2.49798081278801,4.45339161014191
9.78298183344305,-2.22278160810471,-3.15414307415485,2.56909231066704,4.63568893588602
9.79296883335337,-2.1850384157896,-3.50469651639462,2.59566936761141,4.87799036658142
9.80295583349653,-2.14279871463776,-3.94274009227753,2.56081411510706,5.16667733643561
9.81294183339924,-2.15911127686501,-4.45234598636627,2.51764149069786,5.55190642607392
9.82292883354239,-2.24196632266045,-4.91870236515999,2.45039982631803,5.93502361055063
9.8329148334451,-2.34059481739998,-5.320335329175,2.38762514233589,6.28371752503418
9.84290183335543,-2.4184195035696,-5.58572582960129,2.33762340858579,6.52024302760941
9.85288883349858,-2.40405172526836,-5.69364496529102,2.26898645237088,6.58371910166224
9.86287483340129,-2.33537442326546,-5.68691482007504,2.13413094833493,6.50764848253749
9.87286183331162,-2.27654734075069,-5.51565162777901,1.81393624976277,6.23662131220934
9.88284783344716,-2.08775244176388,-5.31040324866772,1.36913972452283,5.86801810723332
9.89283483335748,-1.80514072179794,-5.14920077562332,0.983969449996948,5.5444564685549
9.90282083349302,-1.52772483766079,-5.01120648622513,0.623804647028446,5.27591374691103
9.91280783340335,-1.19020542383194,-4.92335207104683,0.323803600072861,5.07551311079188
9.92279483331367,-0.80653978407383,-4.89867038905621,0.124125717133284,4.96617410060942
9.93278083344922,-0.563489155769348,-4.91119629442692,-0.0527665896713734,4.94369835083492
9.94276783335954,-0.376308088302612,-4.94979668855667,-0.179361001253128,4.96731974047766
9.95275383349508,-0.336613680124283,-4.87016872107983,-0.02919383212924,4.8818750927554
9.96274083340541,-0.492836079597473,-4.62204534083605,0.537149641960859,4.6791794442996
9.97272683354095,-0.678328471183777,-4.17322125345469,1.32175023436546,4.42977751440742
9.98271383345127,-0.873598576784134,-3.57331651568413,1.94107664510608,4.15927204409576
9.9927008333616,-1.02985605955124,-2.99231085598469,2.3541755604744,3.94419450988071
10.0026868334971,-0.98174399971962,-2.40407116726041,2.63883672952652,3.70227480656643
10.0126738334075,-0.854351297020912,-1.88884419858456,2.72026505470276,3.42015942802157
10.022659833543,-0.595383962988853,-1.55368647515774,2.48474973320961,2.99038542050312
10.0326468334533,-0.266129003763199,-1.26953635275364,2.05377821847796,2.42910521968513
10.0426338333637,0.00774054408073425,-1.02512741625309,1.5385345852375,1.84879279681319
10.0526198334992,0.189508844017982,-0.803932802975178,0.90065605558455,1.22204864228953
10.0626068334095,0.315423370599747,-0.593407019376755,0.0765939203649759,0.67638038262725
10.0725928333122,0.31233779489994,-0.406203440129757,-0.66077739559114,0.836171572956422
10.0825798334554,0.103327901959419,-0.158737579286098,-1.30518507242203,1.31885645453713
10.0925658333581,-0.246961246132851,0.17884410738945,-1.75255320310593,1.77888105323438
10.1025528335013,-0.482674203515053,0.438937907516956,-2.05678851127625,2.15778123393272
10.1125398334116,-0.665182760953903,0.563552305698395,-2.16570459723473,2.33459540589196
10.1225258333143,-0.780381095409393,0.633795784413815,-2.07908043622971,2.30938676074974
10.1325128334574,-0.915569306015968,0.624082097411156,-1.80812747955322,2.12062976512713
10.1424988333602,-0.977449804544449,0.461595283448696,-1.31827464938164,1.7047951129999
10.1524858335033,-1.10745913624764,0.271769227981567,-0.677879405021668,1.32659139884464
10.162471833406,-1.40542389035225,0.210331363677979,-0.166916920356452,1.43084480375084
10.1724588333163,-1.65761371672153,0.136288656592369,0.284320861101151,1.68733404630987
10.1824458334595,-1.76654617488384,0.139717756211758,0.812938392162323,1.94963465009449
10.1924318333622,-1.89635436236858,0.169218420982361,1.27893224358559,2.29356979953892
10.2024188335054,-1.99938639521599,0.303918096721172,1.64834529519081,2.60901406264265
10.2124048334081,-1.93288074910641,0.505020799934864,1.93688901543617,2.78255513094535
10.2223918333184,-1.76513114869595,0.651402043104172,2.09231034636498,2.81385415033596
10.2323778334539,-1.52530818343163,0.761574695706367,2.13961432099342,2.73578334562222
10.2423648333643,-1.30318707883358,0.798942204415798,2.1244150686264,2.61720167206169
10.2523518335074,-1.04005828142166,0.747994537353516,2.03647762298584,2.40592147951394
10.2623378334101,-0.666722917556763,0.698096153140068,1.8870683991909,2.11964261870941
10.2723248333205,-0.307479343414307,0.759697154760361,1.71285762548447,1.89883241987221
10.282310833456,0.0439517658948898,0.934324250221252,1.4706916809082,1.74293648265488
10.2922978333663,0.494732916355133,1.15197808206081,1.20642910838127,1.73990958202528
10.3022848335095,0.951225627064705,1.44741391539574,0.856921148300171,1.93239516933518
10.3122708334122,1.31969727694988,1.82420849204063,0.528048012256622,2.31261156022153
10.3222578333225,1.69424009084702,2.19019098222256,0.193608326911926,2.77576479700495
10.3322438334581,2.1182690602541,2.62401286840439,-0.283974687661976,3.3842501338427
10.3422308333684,2.47762840926647,3.05293303370476,-0.774200003743172,4.00729688050261
10.3522172083613,2.85984160065651,3.36348275005817,-1.29310180127621,4.60041546593873
10.3622042085044,3.25396440088749,3.47946811974049,-1.81686789751053,5.09862644989195
10.3721912084147,3.60233741641045,3.43414518177509,-2.23043561339378,5.45390053234152
10.3821772083174,3.89407137751579,3.32713177978992,-2.5124906784296,5.7049283240433
10.3921642084606,4.26041522562504,3.12764758586884,-2.70121482610703,5.93547629537084
10.4021502083633,4.63656953215599,2.92787512421608,-2.73793826401234,6.12915456707232
10.4121372085065,5.03613375127316,2.75274107515812,-2.65484055876732,6.32363858708349
10.4221232084092,5.36774396896362,2.63606690347195,-2.39945581376553,6.44351707052435
10.4321102083195,5.70242280542851,2.6334514439106,-1.94413488507271,6.575131391133
10.4420972084627,5.8906780064106,2.67166884541512,-1.32215953946114,6.60196998194928
10.4520832083654,5.98938017606735,2.65561356067657,-0.811861335039139,6.60182377108398
10.4620702085085,6.14729651391506,2.50843388020992,-0.42971429027617,6.65328109526757
10.4720562084112,6.25037298560143,2.35791427016258,-0.0687598573789001,6.68069233557116
10.4820432083216,6.24597003221512,2.11629094719887,0.187387985810637,6.5974194404897
10.4920302084647,6.22642805278301,1.73270132124424,0.235835237279534,6.46732389974922
10.5020162083674,6.2530469173193,1.19601521730423,0.113212108388543,6.36740646823379
10.5120032085106,6.24673484802246,0.596342906355858,0.032337441444397,6.275218468992
10.5219892084133,6.09363252282143,0.0846156424283981,0.210818948373198,6.09786534445652
10.5319762083236,5.78276354849339,-0.109735280871391,0.548129068426788,5.80971957716602
10.5419622084592,5.24137160539627,0.169859275817871,0.974821481108665,5.33395776131256
10.5519492083695,4.57837628781796,1.10311407029629,1.27418079614639,4.87872183939683
10.5619362085126,4.12097199618816,2.3443598395586,1.29846486747265,4.9157343564073
10.5719222084153,3.91149140238762,3.31346157431602,1.00629704296589,5.22411967072951
10.5819092083257,3.76003623783588,4.00164026498795,0.569111801795661,5.52040628605857
10.5918952084612,3.59477989017963,4.44672915101051,0.244093186855316,5.72323545602973
10.6018822083715,3.41080777466297,4.50001833558083,0.0127562125772238,5.64658635081624
10.6118682085071,3.15660826027393,4.20890710294247,-0.269628635421395,5.26799528388821
10.6218552084174,2.90120129585266,3.6061053621769,-0.500805249810219,4.6552949144405
10.6318422083277,2.7515266084671,2.9612738353014,-0.503008407577872,4.07345785087279
10.6418282084633,2.53182274281979,2.40257296442986,-0.356628772392869,3.5085135501758
10.6518152083736,2.32578148126602,1.86037118196487,-0.27521744068712,2.99098396400645
10.6618012085091,2.1801694393158,1.44095858931541,-0.153948344215751,2.61786182464529
10.6717882084195,2.08155614733696,1.09690842032433,0.0416842887550592,2.35325766906723
10.6817742083222,1.97955614805222,0.807554860711098,0.334157886095345,2.16389669096959
10.6917612084653,1.80625753998756,0.527977845668793,0.751390015482903,2.02630547096098
10.7017482083756,1.52513335168362,0.225307252407074,1.27263128399849,1.99909616662545
10.7117342085112,1.33135136246681,-0.0475402021408081,1.75962424099445,2.20704190958331
10.7217212084215,1.1389879077673,-0.348709230422974,2.17692423462868,2.48150976317563
10.7317072083242,1.03001101076603,-0.674812248051167,2.51014185190201,2.795908862801
10.7416942084674,0.895673570036888,-0.921431724429131,2.76462437152863,3.04867438118555
10.7516812083777,0.656719501018524,-1.04037461578846,2.90900031208992,3.15847157022732
10.7616672085132,0.345634179711342,-1.07820668578148,2.79535265922546,3.01595575778019
10.7716542084236,0.0167470103502274,-1.17152473926544,2.481159542799,2.743884719497
10.7816402083263,-0.350917139053345,-1.16728024542332,2.16818030834198,2.48730614507318
10.7916272084694,-0.706678696274757,-1.1289450225234,1.86014430999756,2.28780429618996
10.8016132083721,-0.938201538920402,-1.20963309019804,1.61543248772621,2.22554632909225
10.8116002085153,-1.0239293217659,-1.36567013293505,1.53746922254562,2.29723698782643
10.8215872084256,-1.12713735580444,-1.57110182225704,1.59651323676109,2.50751950538827
10.8315732083283,-1.19129709899426,-1.83359882801771,1.70727236509323,2.77417598014097
10.8415602084715,-1.36204222798347,-2.1813049685955,1.77407797336578,3.12419638505829
10.8515462083742,-1.58911592423916,-2.54683897733688,1.80321347951889,3.50189335215559
10.8615332085174,-1.83155084073544,-2.86213897168636,1.8215339756012,3.85543823705089
10.8715192084201,-2.10441642165184,-3.13498467206955,1.84399897813797,4.20202684441721
10.8815062083304,-2.37703057229519,-3.33240479886532,1.88970198512077,4.50845535385413
10.8914932084735,-2.62855323135853,-3.52427942633629,1.90446503520012,4.79132806592101
10.9014792083763,-2.87494028091431,-3.64068754971027,1.77989946126938,4.96869495397595
10.9114662085194,-3.05786048233509,-3.71205632507801,1.62221291899681,5.0755736271419
10.9214522084221,-3.19188100397587,-3.8266775393486,1.50711047887802,5.20604910937661
10.9314392083325,-3.30847272992134,-3.99906105816364,1.39548596262932,5.3745569327573
10.9414262084756,-3.41484761595726,-4.26270382583141,1.30678954839706,5.61600632752195
10.9514122083783,-3.52552897632122,-4.60884905219078,1.28051566958427,5.94226930800105
10.9613992085215,-3.6275570422411,-4.98961798131466,1.24532361745834,6.29335273176159
10.9713852084242,-3.71346667349339,-5.40470597326756,1.19489606022835,6.66546757454938
10.9813722083345,-3.7219831430912,-5.78189289808273,1.14920701347291,6.97166556585799
10.99135820847,-3.72502194106579,-6.08811742901802,1.08772712230682,7.21970308139721
11.0013452083804,-3.74750799357891,-6.12225405871868,1.01678987145424,7.2498050018002
11.0113322085235,-3.52460979402065,-5.98427789568901,0.877067145109177,7.00026448857244
11.0213182084262,-3.14753572046757,-5.75763864755631,0.82638589181006,6.61364480068563
11.0313052083366,-2.78169590234756,-5.51808348476887,0.791088516712189,6.22999987795265
11.0412912084721,-2.4143580275774,-5.31189721226692,0.73090780377388,5.88044240654001
11.0512782083824,-2.10178985238075,-5.22612148225308,0.648037482127547,5.67008103196771
11.061264208518,-1.72074084162712,-5.28359434962273,0.532080252170563,5.58215260362512
11.0712512084283,-1.26765647292137,-5.57040729403496,0.367553563937545,5.7246385018742
11.0812382083386,-0.975383398532867,-5.93090801954269,0.233261804580688,6.01510214209914
11.0912242084742,-0.754917640686035,-6.25891518294811,0.295658685341477,6.31120701369993
11.1012112083845,-0.590122053623199,-6.45527053177357,0.761376475095749,6.52674925314171
11.11119720852,-0.534049594402313,-6.33846245884895,1.56496166110039,6.55060457608554
11.1211842084304,-0.595642994642258,-5.78186775505543,2.3746244430542,6.27882366049299
11.1311702083331,-0.703600137233734,-4.90099816560745,3.04405579090118,5.81215208253552
11.1411572084762,-0.586047713756561,-3.81922292411327,3.44495375990868,5.17664196895831
11.1511442083865,-0.307016828656197,-2.69535270005465,3.45743288755417,4.39465899504286
11.1611302085221,0.074883536696434,-1.71445274591446,3.08535701394081,3.53049340255941
11.1711172084324,0.584688820838928,-0.947173798978329,2.56313048958778,2.79439387512562
11.1811032083351,0.932416303753853,-0.25683543920517,1.98314166069031,2.20640328423958
11.1910902084783,1.02116943597794,0.302819989621639,1.22405144691467,1.62258710329641
11.2010772083886,0.924757620692253,0.698864184916019,0.23446340739727,1.18260766756988
11.2110632085241,0.740266272425652,0.979713846445084,-0.805208957791328,1.46839873355795
11.2210502084345,0.458632791638374,1.1134712433815,-1.65174837470055,2.04412204643692
11.2310362083372,0.224880990386009,1.16093016922474,-2.36656522572041,2.64555500514396
11.2410232084803,-0.0666173279285431,1.15712041586638,-2.89159490525723,3.11523460132695
11.251009208383,-0.406382657289505,1.11861006885767,-3.24994502484798,3.46100823674686
11.2609962085262,-0.690489510297775,1.02214650571346,-3.47800222277641,3.69026539758473
11.2709832084365,-0.952737132310867,0.888370982408524,-3.38143019378185,3.62366957669832
11.2809692083392,-1.1697436773777,0.756764776110649,-2.80861999154091,3.13517773882282
11.2909562084824,-1.32751675844193,0.602528675794601,-1.95195612072945,2.43628287486328
11.3009422083851,-1.53739964067936,0.422512201666832,-1.17610435165465,1.98124598717559
11.3109292085283,-1.58703314602375,0.199162597060204,-0.42408451795578,1.65474699728254
11.320915208431,-1.64449899673462,0.0696999800205231,0.15984412830323,1.65371859239384
11.3309022083413,-1.75722278952599,-0.0173007416725159,0.606968430094421,1.8591777544988
11.3408892084844,-1.84792889177799,-0.0891086429357529,0.933923131227493,2.07243671902315
11.3508752500638,-1.99916595518589,-0.138847982883453,1.22452105142176,2.3484878292425
11.360862250207,-2.0658259677887,-0.156332327127457,1.44467332541943,2.52569945616528
11.3708482501097,-2.06799996256828,-0.218395258784294,1.57384592056274,2.6079323833094
11.38083525002,-2.01673157572746,-0.237384091615677,1.66778962612152,2.62775183236297
11.3908222501632,-1.8798102504015,-0.255860123634338,1.68448342680931,2.5370525015411
11.4008082500659,-1.71490239679813,-0.21923287242651,1.64989071428776,2.38978924844626
11.4107952502091,-1.47594072639942,-0.0534248399734497,1.50349631488323,2.10754748706597
11.4207812501118,-1.03772114932537,0.194442724585533,1.13890246532857,1.55298808187086
11.4307682500221,-0.286474390625954,0.471594314575195,0.730804308056831,0.915720323405888
11.4407542501576,0.362225654125214,0.934503175020218,0.431486435160041,1.09118474712416
11.4507412500679,1.02956194460392,1.39103681623936,0.0420460121333599,1.73111209603718
11.4607282499783,1.55717784762383,1.83334476649761,-0.44510365024209,2.44623652606067
11.4707142501138,2.09453053414822,2.34622334718704,-0.974296620413661,3.29257893723359
11.4807012500241,2.6206998360157,2.89074705898762,-1.54913851082325,4.1981324794787
11.4906872501597,3.08586923003197,3.30511116564274,-2.18225762620568,5.02081637477883
11.50067425007,3.60862785100937,3.49311493635178,-2.78859503209591,5.74458955702445
11.5106602502055,4.12511884152889,3.48402836322784,-3.3541529327631,6.35652428524237
11.5206472501159,4.53123135745525,3.34613055288792,-3.76696401894093,6.7763312501494
11.5306342500262,4.95534803509712,3.12609456539154,-4.02933969497681,7.11080303188235
11.5406202501617,5.36363103747368,2.86162266254425,-4.13704482257366,7.35340479185808
11.5506072500721,5.77142111957073,2.72337343454361,-3.99852896153927,7.53088961940575
11.5605932502076,6.0770100581646,2.63709075093269,-3.60240407466888,7.54066402864359
11.5705802501179,6.30658519327641,2.54364756703377,-3.02378466367722,7.44220622111612
11.5805672500283,6.42743076860905,2.44773159563541,-2.35789190456271,7.27068844629837
11.5905532501638,6.52700592756271,2.21916510522366,-1.73411576271057,7.10870294928424
11.6005402500741,6.58286847174168,1.92854153037071,-1.04709774434567,6.93900882236282
11.6105262502097,6.49284532427788,1.61877124786377,-0.36262311860919,6.70141449875005
11.62051325012,6.36225068628788,1.19532290697098,0.13741994664073,6.47502238519952
11.6304992500227,6.30642907261849,0.572606719136238,0.525045905560255,6.35410098327948
11.6404862501659,6.30404106974602,-0.124228774309158,0.862493910267949,6.36398164223155
11.6504732500762,6.1663987827301,-0.610387333631516,1.22251231357455,6.31597838830648
11.6604592499789,5.77185732185841,-0.724301619529724,1.61018928945065,6.03586442258319
11.670446250122,5.21514275014401,-0.456167605519295,1.87502839744091,5.56071346860406
11.6804322500248,4.59354805827141,0.381145489811897,2.05821450099349,5.04798995444255
11.6904192501679,4.09368011713028,1.52916968464851,2.07774317800999,4.83875950421209
11.7004052500706,3.86438506364822,2.60868790090084,1.74995660081506,4.98006752857731
11.7103922499809,3.85342972040176,3.40265266299248,1.22222536146641,5.28401368178179
11.7203792501241,3.90225689470768,4.00814061462879,0.755856118798256,5.64483113398933
11.7303652500268,3.96982614934444,4.36503185391426,0.22735304698348,5.90463480239699
11.74035225017,4.04169076859951,4.40967008292675,-0.315029706805944,5.98996646279526
11.7503382500727,3.92208889603615,4.21635119318962,-0.797396492958069,5.81345335060869
11.760325249983,3.70019524812698,3.83280308246613,-1.13825174331665,5.44770055843626
11.7703122501262,3.51659735441208,3.30636597812176,-1.33623905003071,5.00839772114456
11.7802982500289,3.35805711865425,2.66223494768143,-1.39421126961708,4.50642514562575
11.790285250172,3.24063508808613,1.89989952921867,-1.18659666851163,3.93946007074361
11.8002712500747,3.17054626822472,1.05447926938534,-0.857988849878311,3.44970071673364
11.8102582499851,3.05889251589775,0.237726738452911,-0.547347405329347,3.11655685141656
11.8202442501206,2.77948273122311,-0.482575385570526,-0.161196698918939,2.82566587403188
11.8302312500309,2.44149086236954,-1.11500204443932,0.396441148146987,2.7131665584851
11.8402182501741,2.07030493497848,-1.63540365278721,0.86860030375421,2.77762022584584
11.8502042500768,1.64004868090153,-2.02934343516827,1.3101253849268,2.91966144917813
11.8601912499871,1.31693563699722,-2.29753972202539,1.61255916595459,3.10054113179973
11.8701772501227,0.977704158425331,-2.5251329433918,1.7886615139246,3.24522908507239
11.880164250033,0.495147483944893,-2.61303998351097,1.90671913683414,3.27241911329425
11.8901502501685,0.0203377854824066,-2.54264126121998,1.91589341819286,3.18372200398392
11.9001372500788,-0.440812232494354,-2.44616191059351,1.82231691777706,3.0820224635735
11.9101242499892,-0.883468092083931,-2.33832171231508,1.71401069641113,3.03085746405639
11.9201102501247,-1.26802367806435,-2.2488063955307,1.57717766404152,3.02531050252087
11.930097250035,-1.61664987802506,-2.22978277176619,1.44219059765339,3.10892292560359
11.9400832501706,-1.88298704266548,-2.28504831522703,1.3372319072485,3.24888829902344
11.9500702500809,-2.01340743362904,-2.43440199047327,1.26857273161411,3.40432068413182
11.9600572499912,-2.0418722641468,-2.65903301239014,1.20345170617104,3.56202118370435
11.9700432501268,-2.20015639185905,-2.85629643380642,1.17499506175518,3.79206155825068
11.9800302500371,-2.38984357595444,-2.98974860608578,1.11637438595295,3.98700900610149
11.9900162501726,-2.51588147878647,-3.07049806952477,1.04020621597767,4.10361389290156
12.000003250083,-2.70029856741428,-3.13068462967873,0.981028885245323,4.24914300505078
12.0099892499857,-2.89490559875965,-3.14893788278103,0.962199681401253,4.38430341584979
12.0199762501288,-3.02197085738182,-3.18591625928879,0.991980135440826,4.50182128290039
12.0299632500391,-3.05764647424221,-3.2682906639576,1.01892293572426,4.59011217450109
12.0399492501747,-3.02911264657974,-3.43841891169548,1.09138397097588,4.71055909739784
12.049936250085,-3.08730355203152,-3.62861304938793,1.1889459335804,4.91038372406395
12.0599222499877,-3.21138906955719,-3.80130383938551,1.28784807801247,5.14018319784799
12.0699092501309,-3.28795601963997,-3.98371474832296,1.31156438469887,5.32924376608005
12.0798952500336,-3.4011212772131,-4.19814062476158,1.33523859143257,5.56550741115633
12.0898822501767,-3.49521116316319,-4.41174467504025,1.32070942997932,5.78137228962837
12.0998692500871,-3.56332713246346,-4.65781217426062,1.19272674322128,5.98457279909234
12.1098552499898,-3.62158820450306,-4.98299425542355,1.01964214324951,6.24386122306303
12.1198422501329,-3.65441973567009,-5.33878680288792,0.828352822065353,6.52254524928489
12.1298282500356,-3.6121689248085,-5.65842952430248,0.672689416408539,6.74671031494597
12.1398152501788,-3.57866204023361,-5.83830449581146,0.572345348596573,6.87169561186186
12.1498022500891,-3.56511930406094,-5.85545730292797,0.492637274265289,6.87307408388677
12.1597882499918,-3.44127176821232,-5.81641778290272,0.418313352651894,6.771119055885
12.169775250135,-3.27723690390587,-5.72033516585827,0.346611249446869,6.60171610206925
12.1797612500377,-2.95803389310837,-5.54156765699387,0.205046668443829,6.28498056847102
12.1897482501809,-2.32035175681114,-5.46016155123711,-0.00243828892707825,5.9327398717791
12.1997342500836,-1.59503856897354,-5.58853834033012,-0.278271331787109,5.8183626349642
12.2097212499939,-0.846728281974793,-5.92056254088879,-0.561276569366455,6.00708256738587
12.219708250137,-0.325208685994148,-6.29764012277126,-0.75353068113327,6.35089287366695
12.2296942500398,-0.161898876428604,-6.54482590198517,-0.778780127763748,6.59298534966403
12.2396812501829,-0.112478794455528,-6.63260371863842,-0.51089812874794,6.65320227151231
12.2496672500856,-0.170799508094788,-6.44732475042343,0.197999585866928,6.45262525995362
12.2596542499959,0.089168284535408,-6.01345842540264,1.00175551056862,6.09697854022528
12.2696402501315,0.241453753709793,-5.38697487652302,1.47190322399139,5.58965985872727
12.2796272500418,0.210067069530487,-4.86059507489204,1.49529091715813,5.08973551205773
12.289614250185,-0.024668818116188,-4.214369571805,1.40679213881493,4.44303765009645
12.2996002500877,0.00180912852287293,-3.090068115592,1.19209758281708,3.31204179908748
12.309587249998,0.379279643297195,-1.80070326983929,0.908713445663452,2.05235119805532
12.3195732501335,1.24884422600269,-0.113898498415947,1.00251740276814,1.60549864889842
12.3295602500439,2.05867014527321,1.25598689228296,1.34889710247517,2.76317738006298
12.339547250187,2.36697979331017,1.78948655605316,1.65834871172905,3.39926108528413
12.3495327502023,2.26829925835133,1.74479277849197,1.74377243936062,3.35115288902022
12.3595197501127,1.88392084300518,1.40453335940838,1.23725913763046,2.65568858755134
12.3695057500154,1.37976630806923,1.16635053813458,0.40813740670681,1.85221618215671
12.3794927501585,0.98922551214695,1.05708595812321,-0.300389594435692,1.47859113523276
12.3894787500612,0.795709571242333,1.00106203079224,-0.69884532764554,1.45727955562155
12.3994657502044,0.198565596342087,1.119896748662,-0.841630825549364,1.41489910249081
12.4094527501147,-0.597631632685661,1.0972083824873,-0.924683361053467,1.5543709728363
12.4194387500174,-1.25355942070484,0.900277082920074,-1.02522170260549,1.85283285451285
12.4294257501606,-1.29425896525383,0.806740928292274,-0.95542217373848,1.79965794655344
12.4394117500633,-1.16747495770454,0.769082520604134,-0.766729893386364,1.5944781057695
12.4493987502065,-1.24987859845161,0.81353539288044,-0.601744271814823,1.60814567592568
12.4593857501168,-1.53980927824974,1.08211087167263,-0.436540841460228,1.93197941454843
12.4693717500195,-1.62681292355061,1.31687891900539,-0.289138382077217,2.11288697746527
12.4793587501626,-1.64213496744633,1.41692068576813,-0.225579732656479,2.180632407549
12.4893447500654,-1.69733209848404,1.46209218084812,-0.244633761942387,2.25355174675966
12.4993317502085,-1.67807721734047,1.40784814596176,-0.267551046609879,2.20670866042329
12.5093177501112,-1.60965193033218,1.21408369839191,-0.241111106872559,2.03054503259111
12.5193047500215,-1.48558278501034,0.791620613336563,-0.104319151192904,1.68656511640791
12.5292917501647,-1.3528217536211,0.394396449923515,0.155230565518141,1.41766420045574
12.5392777500674,-1.15483386218548,0.180889463424683,0.542648948282003,1.28873198466549
12.5492647499777,-0.961423755884171,0.0589112824201584,0.969018119573593,1.36630973561516
12.5592507501133,-0.709018167257309,0.0679750514030457,1.33708411887288,1.51496577850994
12.5692377500236,-0.422608680725098,0.211412513852119,1.62019972264767,1.68770272539481
12.5792237501591,-0.0428770476579666,0.462967332601547,1.69399099946022,1.75663960405209
12.5892107500695,0.41088793694973,0.730197951793671,1.57187891721725,1.78124149848541
12.5991977499798,0.99160942196846,1.05040434479713,1.30360866308212,1.94577338859593
12.6091837501153,1.62000559508801,1.38746942996979,0.937048614174128,2.3297102078462
12.6191707500257,2.11459233105183,1.72274585187435,0.488708676248789,2.7709547392432
12.6291567501612,2.67320724785328,2.01184856593609,0.00291322901844978,3.34568081698445
12.6391437500715,3.27362683296204,2.16856739401817,-0.480410161614418,3.95602213179732
12.6491307499819,3.84451622486115,2.19999150037766,-0.907306605577469,4.52144588394896
12.6591167501174,4.36304438531399,2.19762805581093,-1.21681595608592,5.03451749931337
12.6691037500277,4.88212101459503,2.11697565615177,-1.34724818766117,5.48924122343389
12.6790897501633,5.42576647460461,1.90204896569252,-1.32513343334198,5.90022971764625
12.6890767500736,5.98837503969669,1.66345157682896,-1.10006606295705,6.31172338647591
12.6990627502091,6.47784136891365,1.43799755930901,-0.720394656211138,6.67452127437506
12.7090497501194,6.87263133645058,1.29599792718887,-0.195939611792564,6.99650373011476
12.7190367500298,7.12847976565361,1.29398122251034,0.404004156142473,7.25622701765337
12.7290227501653,7.31573041498661,1.40194889008999,0.933737628310919,7.50714580607759
12.7390097500756,7.46657688438892,1.48039338111877,1.17812054470181,7.70255171687927
12.7489957499784,7.66240656852722,1.3896597969532,1.12641697883606,7.86844609709486
12.7589827501215,8.00992179751396,1.02334576964378,0.892111300081015,8.1241581925926
12.7689697500318,8.05818705439568,0.500735667943955,0.678436059951782,8.10218429191932
12.7789557501674,7.65916253328323,0.136526638269424,0.616641515493393,7.68515822822385
12.7889427500777,6.86207652747631,0.150993819236755,0.770797362774611,6.90688221825516
12.7989287499804,6.02603344738484,0.612709847688675,0.958758156448603,6.13251250867148
12.8089157501236,5.42627752125263,1.37878339111805,1.02901449903846,5.69248647047193
12.8189017500263,5.06236669957638,2.23930642426014,0.946354165524244,5.61583796679691
12.8288887501694,4.82888620913029,3.03778874516487,0.833907530754805,5.76556191978099
12.8388757500798,4.68765607059002,3.58512145936489,0.592311835885048,5.93110854945917
12.8488617499825,4.54670250535011,3.87341784238815,0.273514037132263,5.97918718409085
12.8588487501256,4.34871461391449,3.93648941874504,-0.128821616023779,5.8671852489861
12.8688347500283,4.09336553692818,3.77630611538887,-0.521743544340134,5.59359862897717
12.8788217501715,3.83865906894207,3.50189160704613,-0.700718044638634,5.24304816429846
12.8888087500818,3.6622953504324,3.13494198739529,-0.6150329464674,4.85989033038535
12.8987947499845,3.54916926920414,2.70136626899242,-0.272780065387487,4.46860058461101
12.9087817501277,3.49976555943489,2.24008644282818,0.225410017222166,4.16138870068795
12.9187677500304,3.45587752819061,1.70202624320984,0.687930768728256,3.91321243545388
12.9287547501735,3.30825404405594,1.07729452013969,1.1910271038115,3.67745208876324
12.9387407500763,2.91768284261227,0.52116583943367,1.83461258903146,3.48572666084122
12.9487277499866,2.45308706045151,0.0611501812934876,2.39762212693691,3.4307385989615
12.9587147501297,1.98059402883053,-0.343312835097313,2.82405839502811,3.46639902900841
12.9687007500324,1.58888145089149,-0.694848024845123,3.05546604752541,3.51329344208518
12.9786877501756,1.17755087971687,-0.92153638958931,2.98226884782314,3.33613292186562
12.9886737500783,0.712538775801659,-1.01950122535229,2.75136697947979,3.01945599591838
12.9986607499886,0.285295007228851,-0.950910462141037,2.54186650514603,2.72886593260685
13.0086477501318,0.019074786901474,-0.869377471804619,2.29508359909058,2.45430025929821
13.0186337500345,-0.0740988403558731,-0.868268839716911,2.08016626417637,2.25532106423518
13.0286207501777,-0.228299857378006,-0.890991704463959,1.91082095861435,2.12066588084551
13.0386067500804,-0.460867597460747,-0.883089484870434,1.6964561855793,1.96728482184666
13.0485937499907,-0.657048114538193,-0.93192893832922,1.48299714624882,1.87069086347685
13.0585797501262,-0.805950969457626,-1.07390459686518,1.3458495336771,1.90108890261258
13.0685667500366,-0.935115963220596,-1.26112513303757,1.23216036558151,1.99576993472669
13.0785537501797,-1.02861820399761,-1.55288189828396,1.13247060120106,2.17990533331105
13.0885397500824,-1.13964221119881,-1.83071030348539,1.13170520067215,2.43537291724739
13.0985267499927,-1.19916979014874,-2.12352980017662,1.10152947485447,2.67595855383014
13.1085127501283,-1.30208487868309,-2.42142321825027,1.19030014872551,2.99591887026879
13.1184997500386,-1.47092673897743,-2.61786627531052,1.27058066546917,3.2605558627803
13.1284867501818,-1.67535650789738,-2.7856810721755,1.36669836580753,3.52628740852641
13.1384727500845,-1.86835672438145,-2.91343074738979,1.54155291795731,3.78882844270367
13.1484597499948,-2.02356170833111,-3.04350995332003,1.72153255462647,4.03997885638288
13.1584457501303,-2.25807540178299,-3.2739773735404,1.95021131157875,4.42957746544765
13.1684327500407,-2.5519652312994,-3.4798379561305,2.14364539146423,4.8184037094284
13.1784187501762,-2.7683279979229,-3.72465941369534,2.17557703614235,5.12541345574218
13.1884057500865,-2.90355187654495,-4.13921180069447,2.12583828091621,5.4847858871067
13.1983927499969,-3.08059153318405,-4.63289748072624,2.0314022397995,5.92286909538842
13.2083787501324,-3.33367481410503,-5.12109320998192,1.86980741858482,6.39023968362032
13.2183657500427,-3.61498260498047,-5.60227695822716,1.66458067417145,6.87200372321053
13.2283517501783,-3.93354768455029,-6.06160439908505,1.54523666381836,7.38942498607616
13.2383387500886,-4.22574182152748,-6.39817247092724,1.48338247776032,7.80986097733269
13.2483257499989,-4.44454521596432,-6.62570458889008,1.43062889814377,8.10559328613238
13.2583117501345,-4.59067181289196,-6.75424685418606,1.3506109213829,8.27757622265853
13.2682987500448,-4.56661987602711,-6.82784283399582,1.28066068053246,8.31345575777821
13.2782847501803,-4.4973654538393,-6.95218270540237,1.16271883249283,8.36128312390608
13.2882717500906,-4.51627710342407,-7.08445549428463,0.987438018321991,8.4593913708635
13.2982577499934,-4.5085675495863,-7.14027827739716,0.66844784617424,8.47098446173214
13.3082447501365,-4.2136410087347,-7.18181572794914,0.175407114028931,8.32850618996951
13.3182317500468,-3.62668229877949,-7.30111529946327,-0.48234262984246,8.16650252708591
13.3282177501824,-3.0664056032896,-7.39486429274082,-0.960722090005875,8.0628684825045
13.3382047500927,-2.57670187711716,-7.58536891758442,-1.13905982851982,8.09164207515029
13.3481905835215,-2.24596991121769,-7.77819079399109,-0.939040614366531,8.1502411096392
13.3581775834318,-2.00018454015255,-7.61688950300217,-0.0954872243106365,7.87571340931197
13.3681645833422,-1.97795167207718,-7.06985792040825,1.15600856781006,7.43179249176687
13.3781505834777,-1.92931453227997,-6.22913940668106,2.49118634819984,6.98071928484385
13.388137583388,-1.81630598008633,-5.08311320543289,3.6955630838871,6.54172712512015
13.3981235835236,-1.42646217226982,-3.77149970412254,4.56752794861794,6.09272647576757
13.4081105834339,-0.672028096318245,-2.44708226233721,4.84012280344963,5.46503633230005
13.4180965833366,0.151617717146873,-1.29641249477863,4.53769896268845,4.72169304008158
13.4280835834797,0.857546215653419,-0.509843291044235,3.79537037730217,3.92430401400135
13.4380705833901,1.43348467826843,0.0163096386194229,2.66644728183746,3.02738921084829
13.4480565835256,1.73147516012192,0.195591117739677,1.41031917929649,2.24170968302084
13.4580435834359,1.69724965274334,0.202561291158199,0.157962567396462,1.71657788437098
13.4680295833386,1.41899001538754,0.171761375069618,-1.14615951776505,1.83213434930376
13.4780165834818,1.1959871506691,0.192798195183277,-2.34321904778481,2.63784607483701
13.4880035833921,0.799398579597473,0.209274771809578,-3.22215086996555,3.32642304104547
13.4979895835277,0.394083039164543,0.222029303312302,-3.81305937409401,3.83979429704935
13.507976583438,0.16122527718544,0.20125180721283,-4.04529089927673,4.0535014912642
13.5179625833407,0.0148449110984802,0.0605467486381531,-3.82373580515385,3.82424394982482
13.5279495834839,-0.0976748138666153,-0.150460260808468,-3.19464030504227,3.1996726923151
13.5379365833942,-0.219538974165916,-0.247763776481152,-2.24855788886547,2.27279493788885
13.5479225835297,-0.326320826411247,-0.343415746092796,-1.38737295091152,1.46602297435447
13.5579095834401,-0.475636494755745,-0.616319626271725,-0.753207330107689,1.08323646495085
13.5678955833428,-0.786879690885544,-0.72117832928896,-0.0644140605255961,1.06931146152912
13.5778825834859,-1.05906407117844,-0.651246214807034,0.564235881753266,1.365320647108
13.5878685833886,-1.18987914919853,-0.567083439230919,0.93027622282505,1.61332261730289
13.5978555835318,-1.11001553893089,-0.582582946121693,1.15514084100723,1.70466646249135
13.6078425834421,-0.995873211622238,-0.529044962525368,1.35463672935963,1.76258125898649
13.6178285833448,-0.867787029147148,-0.296471375226974,1.41498057961464,1.68615528495201
13.627815583488,-0.664520856142044,-0.0180936241149902,1.23361807644367,1.4013311193326
13.6378015833907,-0.389277212619781,0.322762210965157,0.894474890828133,1.02752008419015
13.6477885835338,-0.117261816859245,0.702292115092278,0.591231197342277,0.925483050803578
13.6577745834365,0.184196063876152,1.05400272130966,0.391460489854217,1.13933807168572
13.6677615833469,0.438813654184341,1.34400883018971,0.187972122654319,1.42627160022966
13.67774858349,0.67004705965519,1.6646151727438,-0.108957089558244,1.79771476682104
13.6877345833927,0.943669854998589,1.89247707366943,-0.430173808336258,2.15801570313471
13.6977215835359,1.16409351289272,2.09602683663368,-0.629859219565988,2.47894430012451
13.7077075834386,1.27508828401566,2.32804844677448,-0.781921909824014,2.76713960175953
13.7176945833489,1.41834916055202,2.62280775725842,-0.940759768858552,3.1266377813038
13.7276815834921,1.57167718827724,2.86008601427078,-1.10847487069666,3.44658928973912
13.7376675833948,1.62279120862484,3.02222579598427,-1.305444688797,3.67035228611793
13.747654583538,1.67572429776192,3.21782568454742,-1.53144775986671,3.9379926738687
