Time (s),Linear Acceleration x (m/s^2),Linear Acceleration y (m/s^2),Linear Acceleration z (m/s^2),Absolute acceleration (m/s^2)
0.0179012916632928,-0.642409025430679,0.517171606421471,-1.62079321503639,1.81855065157706
0.0278882916682051,-0.772333864867687,0.308143002390861,-1.14571629881859,1.41566858625968
0.0378742916655028,-0.810044020414352,0.318057541251183,-0.571321501135826,1.04102842046502
0.0478602916628006,-0.738859432339668,0.270265031754971,-0.28823147892952,0.837874592998684
0.0578472916677129,-0.638736389279366,0.154243116974831,-0.174280940294266,0.679815386905597
0.0678332916650106,-0.40899665504694,0.182503879666328,-0.217014731168747,0.497675922139188
0.0778202916626469,-0.0952792096138001,0.325740197896957,-0.325855388045311,0.470496055486908
0.0878062916672207,0.166155357062817,0.427532328665257,-0.324480707645416,0.561853383338286
0.0977922916645184,0.174558975398541,0.508677356243134,-0.129819881916046,0.553241981765112
0.107779291662155,0.0393155086040497,0.527483171224594,0.163315072059631,0.553584698039778
0.117765291666728,0.0227734431624413,0.496622151732445,0.30398914039135,0.58271913370054
0.127751291664026,0.0519051486253738,0.511296616494656,0.472048058509827,0.697816411411771
0.137738291668938,0.0341570949554443,0.556411685943604,0.505671302676201,0.752638118713532
0.147724291666236,0.135157805085182,0.532543351650238,0.467737491130829,0.721559709429286
0.157710291663534,0.406474750936031,0.41652055978775,0.383746916055679,0.697117490425146
0.167697291668446,0.707387671172619,0.267364374250174,0.166687161326408,0.774380807933838
0.177683291665744,0.996394783258438,0.165063681900501,0.0983489978313446,1.01475174725723
0.18767029166338,1.15826968610287,0.0416716441512108,0.645154293179512,1.32648002385225
0.197656291667954,1.27164544343948,-0.13082779571414,1.41641899466515,1.90799392409935
0.207642291665252,1.1462966349721,-0.292418231517076,1.97559699833393,2.3027131600132
0.217629291662888,0.893900109529495,-0.369415098130703,1.99101435184479,2.21351825603397
0.227615291667462,0.622979604899883,-0.398795310258865,1.6456450510025,1.80424192432576
0.23760129166476,0.180769595503807,-0.218692735880613,1.59210619032383,1.61719086092304
0.247588291662396,-0.24183455362916,0.144112158045173,1.14610513865948,1.18017340009302
0.25757429166697,-0.0351303640007973,0.435226825922728,0.0790707278251648,0.443743971763451
0.267560291664267,0.715668205618858,0.50489501170814,-0.614544119238853,1.06993664666303
0.277547291661904,1.60349700495601,0.631241939887405,-0.0134971278905869,1.72332562333327
0.287533291666477,2.48169163942337,0.696803114488721,1.43676847457886,2.95103907515449
0.297519291663775,3.45215840667486,0.169716676846147,2.47526613414288,4.25125203322624
0.307506291668687,3.90389177620411,-0.836695044636726,1.46290260493755,4.25211872242142
0.317492291665985,3.19218681335449,-1.75428251713514,-0.943402052521706,3.76265481196222
0.327479291663622,2.06838383227587,-1.21444154798985,-2.76243634343147,3.65843333991686
0.337465291668195,0.730647456496954,-0.571151054799557,-3.76837085902691,3.88080895745298
0.347451291665493,-0.724981943070889,-0.654345823824406,-3.77800882458687,3.90219399230632
0.357438291663129,-1.99670661628246,-1.08695616692305,-3.31220617711544,4.01734001299864
0.367424291667703,-3.08913548469543,-1.80891509950161,-2.9604207265377,4.64532267535028
0.377410291665001,-4.25765533983707,-2.66526702135801,-1.55062721192837,5.25696890216734
0.387397291662637,-6.20834086060524,-3.47515433639288,4.87036694169045,8.62210345854896
0.397383291667211,-7.63719688296318,-4.74096981346607,3.74387219488621,9.73756386438524
0.407369291664509,-6.16022061467171,-4.90763767898083,-3.77871984601021,8.73567108379259
0.417356291662145,-3.90895780384541,-3.94243018984795,-3.54251338362694,6.58575037389396
0.427342291666719,-2.60727462887764,-4.30287829041481,-3.50366565227509,6.13093105290251
0.437328291664016,-1.14543797135353,-4.08845796883106,-3.78838704764843,5.69028937154404
0.447315291668929,0.762822199165821,-4.0335847735405,-5.13914941191673,6.5774281076179
0.457301291666226,1.6064347922802,-4.65308089971542,-6.00717910051346,7.76646607839051
0.467287291663524,0.192914847135544,-5.55512208759785,-6.34691460907459,8.4368194600363
0.477274291668437,-2.32229507893324,-5.97189349293709,-4.92024486064911,8.07869889359455
0.487260291665734,-4.73987462997437,-6.06998989105225,-2.18591198980808,8.00558555088495
0.497247291663371,-7.19357564806938,-6.44415146648884,0.339940745830536,9.66385939665013
0.507233291667944,-9.9853369474411,-5.56429461479187,1.19003176152706,11.4928022739268
0.517219291665242,-8.2399372279644,-3.16777936577797,-0.929523101449013,8.87667757819161
0.527206291662878,-2.61890357136726,-3.00150969564915,-2.15185254335403,4.52749221286302
0.537192291667452,-0.289630132913589,-4.55630538761616,-1.85844861745834,4.92926319675105
0.54717829166475,0.618153605461121,-5.5820309740305,-2.38199427366257,6.1004164115855
0.557165291662386,-0.00631440818309784,-5.89438631057739,-3.06025374770164,6.64145939160926
0.56715129166696,-2.55638397216797,-5.3107131510973,-2.56363890498877,6.42736474937957
0.577137291664258,-1.95491832017899,-4.30028037250042,-3.97629463165998,6.17454742620476
0.587124291661894,0.719085903167725,-4.25698904961348,-5.38416178107262,6.90132149587502
0.597110291666468,2.56351640582085,-5.03335456967354,-4.87413167148829,7.46079313062434
0.607096291663765,1.96571344971657,-5.30882333099842,-3.37976812273264,6.59321371484267
0.617083291668678,0.054051661491394,-3.73353811830282,-2.50920074254274,4.49870168263103
0.627069291665976,-0.242778148055077,-1.93392652362585,-2.67144080400467,3.30690323373058
0.637055291663273,2.69769480228424,-0.934245312809944,-3.11716674417257,4.22694926179085
0.647042291668186,7.20797967910767,0.429181243479252,-2.8051441141963,7.74648314369776
0.657028291665483,10.725188652277,1.90865631937981,1.25823894739151,10.9661208191946
0.667014291662781,11.2963271355629,1.68827183783054,4.18361760288477,12.1638778684774
0.677001291667693,10.2319163703918,1.6423305568099,1.28890101537108,10.4427308734808
0.686987291664991,8.55416542768479,1.49070231467485,3.60042479217052,9.39994671470273
0.696974291662627,7.38346046805382,1.43984235584736,4.74696087062359,8.89507009529644
0.706960291667201,6.88900938749313,2.0826070381701,4.40929527640343,8.44023620824191
0.716946291664499,6.93861014842987,2.94646868526936,3.40564936101437,8.27190643535966
0.726933291662135,7.53693467617035,3.79282099127769,2.23665061891079,8.72888775135812
0.736919291666709,7.41565991520882,4.40432192713022,0.993257313519716,8.68197118785218
0.746905291664007,6.65238660335541,4.61231791287661,0.0396910460293293,8.0950169505122
0.756892291668919,5.24431450903416,4.0929866373539,-0.213334566727281,6.65589106886407
0.766878291666217,4.5344104886055,2.52875178515911,-0.227569540143013,5.19685019658272
0.776864291663514,4.16964129567146,0.907396652698517,-0.446337851285934,4.29051217191932
0.786851291668427,2.92086197376251,0.802398712858558,0.532162186279893,3.07546337267656
0.796837291665725,1.91486957073212,1.69081011414528,1.75277656674385,3.09803002050305
0.806823291663022,-0.213342095017433,2.49880848616362,1.59665298521519,2.97302193991674
0.816810291667935,-2.37157687425613,2.4757973536849,1.54366025447845,3.75989845451658
0.826796291665232,-2.87165882349014,1.42109530538321,1.41008879899979,3.50061233023247
0.83678229166253,-2.77995752513409,0.0915542408823967,0.788003525733948,2.89093334014161
0.846769291667442,-2.69728374302387,-1.0699352876097,0.174093865938485,2.90695885492222
0.85675529166474,-3.19840240359306,-1.91934181362391,-0.788339229002595,3.81249651446652
0.866741291662038,-3.87215835213661,-2.05244315296412,-1.95533931970596,4.79890456826959
0.87672829166695,-4.08541917085648,-1.43995842307806,-2.51047631263733,5.00665770530682
0.886714291664248,-3.86313259005547,-0.671943165510893,-2.34411951899528,4.56839111125133
0.896700291668822,-3.62123971045017,-0.504634152799845,-2.08543168187141,4.20916357112269
0.906687291666458,-3.30711968421936,-0.978093290627003,-1.93297722816467,3.95349314600695
0.916673666666611,-2.62567464709282,-1.81504049643874,-1.63821440935135,3.5877967901074
0.926659666663909,-2.24817255735397,-2.43559876933694,-0.910943719893694,3.43747577062717
0.936646666668821,-2.37574067652225,-2.30106047675014,-0.00630432173609734,3.3074254072037
0.946632666666119,-2.33715256154537,-2.08673210263252,0.564357028752565,3.1835878847611
0.956618666663417,-1.82151292562485,-2.13680078700185,0.85802992656827,2.93599085428359
0.966605666668329,-1.10424024403095,-2.28670541614294,1.01967474147677,2.73644016107802
0.976591666665627,-0.413505735397339,-2.40099655508995,0.959042769670486,2.61830756115807
0.986577666662924,0.161586635112762,-2.37781702280045,0.847066397219896,2.52935673954184
0.996564666667837,0.65689842581749,-2.18197652131319,0.611148494929075,2.35924554980137
1.00655066666513,1.36668959498405,-2.13619603872299,0.183780326843262,2.54262643214218
1.01653666666243,1.77309330224991,-2.23826357334852,-0.17040189743042,2.8605454879988
1.02652366666734,1.82001603841782,-2.08234376728535,-0.365856775045395,2.78970699628058
1.03650966666464,1.82751626193523,-1.82545102536678,-0.285242382287979,2.5987401467449
1.04649566666194,1.90918666183949,-1.48088133126497,0.191892900019884,2.42380405811051
1.05648266666685,2.30104074239731,-0.565308809280396,0.755682602673769,2.48705020938584
1.06646866666415,3.00489289462566,0.211799891889095,0.911987886428833,3.14737389062198
1.07645466666872,4.01351479053497,1.1461080622673,1.00650476530194,4.29359016521286
1.08644166666636,4.52508008658886,2.63372158527374,0.944117313176394,5.32016885820547
1.09642766666366,4.48259187877178,3.89193246603012,0.571559482812882,5.96384511151684
1.10641366666823,4.58115546941757,4.96458078861237,-0.0657296475023031,6.75561753122498
1.11640066666587,4.18969607591629,5.66274067640305,-0.998195725679398,7.11453300529997
1.12638666666317,3.58961504459381,6.05894040763378,-2.1718628847599,7.36974106884558
1.13637266666774,3.11943107843399,6.47827698647976,-3.22222512960434,7.87919144027525
1.14635966666538,3.3013110601902,7.1894937068224,-3.62262491583824,8.70120024809365
1.15634566666267,3.77274808466434,8.02342418789864,-3.48702447652817,9.5272400782809
1.16633166666725,4.21396962225437,9.04557887971401,-3.00065658688545,10.4203635828521
1.17631866666488,5.38263682723045,10.2994540500641,-2.43409062623978,11.8733453634596
1.18630466666218,7.28478870391846,11.5279400253296,-2.1531588113308,13.8057104328298
1.19629066666676,8.77094100773335,12.3726264595985,-2.59626432180405,15.3867436483022
1.20627766666439,10.4483007717133,12.4574882698059,-3.82292713522911,16.7024182347888
1.21626366666897,12.8929514694214,12.0439766871929,-5.76216556191444,18.5603912673579
1.22624966666626,15.4184878706932,12.1811044192314,-7.29528796434403,20.9602075269697
1.2362366666639,18.2400150060654,13.0687257885933,-7.82167887568474,23.7627523993595
1.24622266666847,22.4382667279243,13.7360614943504,-8.084788377285,27.5230630968927
1.25620866666577,27.5869903707504,14.2526606583595,-7.53866077423096,31.9532749468213
1.26619566666341,32.6836083054543,14.045209633112,-6.71059680461884,36.2010811299411
1.27618166666798,38.0205140590668,12.5519909691811,-5.78268811941147,40.4543131012316
1.28616766666528,43.4305825138092,10.2779783964157,-4.51470303297043,44.8579411128274
1.29615466666291,48.0229716539383,7.30529488921166,-2.67228981971741,48.6488876828018
1.30614066666749,51.2854232883453,4.52177757918835,0.291616998519748,51.485203260881
1.31612666666479,52.7162369585037,2.08323400586843,2.98350670337677,52.8416768776069
1.32611366666242,53.0710226154327,-0.515776899307966,4.66444028556347,53.2781049816453
1.336099666667,53.3066139507294,-2.59595412701368,6.21963066458702,53.7309768599597
1.34608566666429,53.9899850606918,-4.93906353950501,6.93581751823425,54.657281309513
1.35607266666193,54.419002289772,-7.88169411242008,6.97967982172966,55.4280149627409
1.3660586666665,52.8180393218994,-10.9540568590164,6.25215872526169,54.3030950149818
1.3760446666638,50.6330143547058,-14.4446528148651,4.82115560531616,52.8733740076847
1.38603166666871,48.0252918291092,-18.2484759271145,4.7250227022171,51.5922607419955
1.39601766666601,44.3994380807877,-22.1803624176979,5.81390874266624,49.9707926066635
1.40600366666331,39.4047137260437,-25.9996911764145,7.08964022040367,47.7386468550916
1.41599066666822,33.3134844088554,-28.8334249591827,7.93688071846962,44.7677195518723
1.42597666666552,26.9886822152138,-30.2301821064949,8.08223197460175,41.3228187760336
1.43596266666282,20.9960392928123,-30.4626440119743,7.57676590919495,37.7652449724391
1.44594966666773,15.714043571949,-29.7309234452248,6.68397092342377,34.2860677475867
1.45593566666503,11.3412501239777,-28.3125877332687,5.83837349295616,31.0533924647842
1.46592166666233,8.09157348632813,-26.7459689712524,5.12706087827683,28.4096316580381
1.47590866666724,5.97285477519035,-25.1405036473274,4.60030860900879,26.2465761025113
1.48589466666454,4.7555884373188,-23.4356146073341,4.30996862411499,24.2985489885612
1.49588066666911,3.74555560827255,-22.0253246641159,4.05583927631378,22.706693850265
1.50586766666675,2.98453055083752,-20.8479012537003,4.20149488002062,21.4754503682637
1.51585366666404,3.13871811926365,-19.8137697100639,4.87044295549393,20.6436003676287
1.52583966666862,3.84934134721756,-18.9688283371925,5.08422885417938,20.0120778615052
1.53582666666625,4.16466589987278,-18.4540722155571,4.85101704329252,19.5302224705423
1.54581266666355,3.87512698352337,-17.9699660289288,4.52070958524942,18.9307449238917
1.55579866666812,3.1999934309721,-17.5093422603607,4.20267777174711,18.2887813919314
1.56578566666576,2.36546653389931,-17.2386840033531,3.96677858054638,17.8466520781222
1.57577166666306,1.94408342957497,-17.0156992650032,3.99767175972462,17.5867808696384
1.58575766666763,2.17429357230663,-16.8176903235912,4.76448146760464,17.6142710327148
1.59574466666527,2.92663726866245,-16.6150831317902,6.06274519085884,17.927160188605
1.60573066666257,4.25888910233974,-16.3762781667709,7.34082841873169,18.4447386767811
1.61571666666714,6.21082183420658,-16.372138338089,8.48953089058399,19.4600451273876
1.62570366666478,8.53328969836235,-16.4355958306789,9.71585164189339,20.9127620488756
1.63568966666207,10.4795061922073,-16.1461633336544,11.2943952155113,22.3177508659301
1.64567566666665,11.8300960636139,-15.9866957294941,12.0985616147518,23.2787629904964
1.65566266666428,12.4117244517803,-16.1474134683609,11.8055658245087,23.540629771141
1.66564866666886,12.4712923765183,-16.5175235080719,11.0582799696922,23.4658746325042
1.67563466666616,12.1222369909287,-16.9054581999779,10.434094376564,23.2725905750624
1.68562166666379,12.0545683336258,-17.2577365708351,9.95910399913788,23.2878904524226
1.69560766666837,12.551874024868,-17.2789081692696,9.52031139492989,23.3826118753795
1.70559366666566,13.1811022567749,-17.0476858735085,9.67819440364838,23.6227114713825
1.7155806666633,14.3333218288422,-16.5564039838314,10.655126144886,24.3534461768437
1.72556666666787,15.3393586707115,-15.8791291809082,11.8983307313919,25.0801304256235
1.73555266666517,15.9383252227306,-15.4666315054894,13.0274035155773,25.7480124162974
1.74553966666281,16.2939797759056,-15.4615116834641,13.7131240367889,26.3173306268678
1.75552566666738,16.0427366137505,-15.6348535609245,13.6871507048607,26.2517835269776
1.76551166666468,15.2121828997135,-15.67806214571,13.2190272974968,25.5334060381894
1.77549866666232,14.1396678936482,-15.4048942637444,12.7317963588238,24.4814136426467
1.78548466666689,13.1277101612091,-14.9291694760323,12.3429296207428,23.4001022848922
1.79547066666419,12.2611796987057,-14.3115959143639,12.2663381123543,22.4860257917353
1.8054576666691,11.7370060515404,-13.6198515915871,12.5449228549004,21.9233382007885
1.8154436666664,11.4268486833572,-12.8848004508019,12.9079788136482,21.5222412992448
1.82542966666369,11.1500087499619,-12.0720830833912,13.289513143301,21.1345462379133
1.83541566666827,10.8538636493683,-11.2041025114059,13.6253105521202,20.7120099663671
1.8454026666659,10.1160023367405,-10.1476053678989,13.856682536602,19.9327632028207
1.8553886666632,8.9156625187397,-8.83452889323235,13.6923453712463,18.5746671754545
1.86537566666811,8.1154921066761,-7.55556799829006,13.1364330375195,17.1905117102296
1.87536166666541,7.57932815909386,-6.64776379466057,12.3760950279236,15.9626660352533
1.88534766666271,6.96369294941425,-5.78589882552624,11.365387430191,14.530714922236
1.89533366666728,7.21259488642216,-5.21988133370876,9.72332730710506,13.183769569237
1.90532066666492,7.54055994987488,-6.01227261006832,7.64998591303825,12.3097421079858
1.91530662500008,6.59645038425922,-8.36449753940106,5.74997177839279,12.1053769958211
1.92529262499738,5.73697984993458,-11.9912336325645,4.21414357692003,13.9449499072675
1.93527962500229,7.60132012188435,-15.544012387991,3.90414905369282,17.7380598867754
1.94526562499959,15.2309583091736,-17.2939062774181,5.29478942871094,23.6452126326302
1.95525162499689,27.2484693288803,-17.0437518668175,8.03108404040337,33.1280375109755
1.9652386250018,38.9549061369896,-14.820219476223,11.0099059545994,43.1084869439211
1.9752246249991,45.8237075471878,-13.273633275032,11.8341914534569,49.1533274666864
1.9852106249964,46.1783622264862,-14.3674262988567,8.55848885893822,49.113254910688
1.99519762500131,41.4620214700699,-16.4261022913456,4.43217309236527,44.8169635204235
2.00518362499861,36.2572815012932,-17.4694736051559,3.14404668688774,40.3690227708646
2.01516962499591,34.796537103653,-17.9569980740547,4.78417430520058,39.4479542944884
2.02515662500082,36.2192629051208,-18.6551322340965,6.38028525352478,41.2378103683772
2.03514262499812,38.0116356468201,-18.6891127431393,6.96624408960343,42.9266343473176
2.04512862499541,38.9959910130501,-17.557137401104,7.3236399435997,43.3886631602613
2.05511562500033,38.7017380714416,-15.7900819337368,7.60310644626617,42.4848025164041
2.06510162499762,37.2104524970055,-13.6293509781361,7.58245408058167,40.3468783551001
2.0750876250022,35.8610110187531,-10.6756685829163,6.93955622792244,38.0544274903708
2.08507462499983,34.5492443203926,-7.65777908205986,5.97709868431091,35.888961704984
2.09506062499713,34.3363565540314,-3.97265035450459,5.58306651592255,35.0133969212634
2.10504662500171,35.0806275844574,1.72790309607983,5.70951606273651,35.5841910755251
2.11503362499934,31.1610658550262,7.01973383367062,5.39932010293007,32.3950821250814
2.12501962499664,25.463793861866,10.0109185159206,3.47258360803127,27.5804663536854
2.13500562500121,20.9953118991852,11.521473004818,0.84665226817131,23.9638119256519
2.14499262499885,17.4282881569862,12.4178710448742,-1.38566205561161,21.4445519585379
2.15497862499615,14.5647686576843,13.0598754429817,-3.12825686573982,19.8110783062434
2.16496462500072,12.6334637331963,13.302077640295,-3.9920794826746,18.7746204766545
2.17495162499836,11.2869692516327,13.263586589098,-3.84328187763691,17.8350559204274
2.18493762499565,10.6905813217163,13.0581189393997,-3.33364148497582,17.202213950015
2.19492362500023,10.5588037919998,12.9660276317596,-2.87128109335899,16.9661564646382
2.20491062499786,9.59467277526855,13.0155558872223,-2.83364490509033,16.416211017346
2.21489662500244,8.10938176631928,12.8764541351795,-3.28023067831993,15.5667934087366
2.22488262499974,6.96951736092568,12.6259909915924,-3.96646312326193,14.9573610798233
2.23486962499737,6.15217367649078,12.4156502723694,-4.57953052818775,14.5934818494455
2.24485562500195,5.75571842193604,12.128692317009,-5.28914920449257,14.4294341947517
2.25484162499924,5.8787777531147,11.8173292529583,-6.10050007760525,14.5404745362798
2.26482862499688,6.3600211429596,11.777312078476,-6.63534080028534,14.9393003942166
2.27481462500145,6.91129429578781,12.0967010307312,-7.15206860303879,15.6604038891868
2.28480062499875,7.30826936781406,12.5392838001251,-7.75464698016644,16.4553635377531
2.29478762499639,7.8862584489584,12.6750549781322,-8.07623039245606,16.9727896462094
2.30477362500096,8.9541091310978,12.6134007668495,-7.98577630519867,17.4082328923254
2.31475962499826,9.82282528281212,12.5409116649628,-7.33020695149899,17.5355152726362
2.3247466249959,10.9618359947205,12.3818369936943,-6.26589617371559,17.6842639251214
2.33473262500047,12.3997984707356,11.893205062151,-4.73050037384033,17.8208014003897
2.34471862499777,13.6688337171078,11.2484782004356,-2.46802874296904,17.8733444796361
2.3547056249954,14.4429816806316,10.7553918600082,0.142659198045731,18.0082904667872
2.36469162499998,14.5607165372372,10.4669685924053,2.66178383499384,18.1288993261148
2.37467762499728,14.2430583608151,9.90245500445366,5.09535435140133,18.0799879024063
2.38466462500219,14.1919642210007,8.56145281255245,6.97737835764885,17.983162443172
2.39465062499949,14.4875304472446,6.39312340021133,8.63664800584316,18.0375235009412
2.40463662499678,13.9453310036659,3.98667782485485,9.73126958012581,17.4660660860446
2.4146236250017,12.0089214599133,1.750613681674,9.49541745901108,15.4091464920586
2.42460962499899,10.2971128249168,-0.445087716579437,7.6613587474823,12.8423149572863
2.43459562499629,8.21004392266274,-3.0703477960825,5.01075625061989,10.0965110312467
2.4445826250012,5.05852332472801,-4.97771246552467,2.90177198410034,7.66723941611104
2.4545686249985,2.17929294168949,-5.98652556538582,1.54422889620066,6.55533744017627
2.4645546249958,-0.681276052594185,-6.90926765084267,0.39119846150279,6.9537869371373
2.47454162500071,-3.49814997375011,-7.96796276271343,-0.738058071434498,8.73328194573182
2.48452762499801,-5.64334838569164,-8.80101557672024,-1.33938894510269,10.5403614231308
2.49451362499531,-6.80545326054096,-8.9799637645483,-1.18000568702817,11.3290051070439
2.50450062500022,-6.82086008906365,-8.69722749888897,-0.753065388947725,11.0784929481425
2.51448662499752,-5.81568629622459,-8.21872469902039,-0.356967253088951,10.0745753455994
2.52447262500209,-4.46604484319687,-7.36261631369591,0.045048995912075,8.61137067697002
2.53445962499973,-3.24740616381168,-6.121750613451,0.358522027730942,6.9390212141496
2.54444562499702,-2.59611463308334,-5.0270290517807,0.507251074165106,5.68050490078112
2.5544316250016,-2.02941535592079,-4.43140476822853,0.481582674533129,4.89773384118984
2.56441862499923,-1.12028675794601,-4.31059690743685,0.66130956530571,4.50262350853346
2.57440462499653,0.14908411860466,-4.59171846449375,1.40782592654228,4.80500555369477
2.58439062500111,1.05916288912296,-4.8363595354557,2.77165330946445,5.67399873543816
2.59437762499874,1.51881134212017,-4.92530737996101,3.99128016829491,6.51887705528149
2.60436362499604,1.5021222192049,-4.97401644051075,4.84184305429459,7.10215846586944
2.61434962500061,0.997675908207893,-4.91788843274117,5.20804832339287,7.23220237503785
2.62433662499825,0.0621506398916245,-4.59899532437325,5.10441402733326,6.87092884973221
2.63432262499555,-1.02620798170567,-4.20685092955828,4.49469619989395,6.24123317098335
2.64430862500012,-1.94198427915573,-3.97347685843706,3.75889895439148,5.80423488793727
2.65429562499776,-2.44372274458408,-3.80200550526381,3.24335930585861,5.56294942466256
2.66428162500233,-2.42150975704193,-3.87258549124002,2.68457598924637,5.29788411844296
2.67426762499963,-2.17216986358166,-4.11309988975525,2.28415515303612,5.18201479952522
2.68425462499727,-2.05466948032379,-4.11129923969507,2.16143963813782,5.07900279789297
2.69424062500184,-1.90898142457008,-4.06638356029987,2.13248188734055,4.97264158558268
2.70422662499914,-1.76843833386898,-4.31030922442675,2.12931035757065,5.12250938015083
2.71421362499677,-2.07931666374207,-4.3570091816783,2.40545330286026,5.39381983288149
2.72419962500135,-2.80489122211933,-3.86339805364609,2.71779168248177,5.49360090634599
2.73418562499864,-3.40267020463943,-3.24054504096508,2.68981743335724,5.41427876165024
2.74417262499628,-3.68287638008595,-2.87904853463173,2.28622740626335,5.20378080331116
2.75415862500085,-3.71766848266125,-2.7770853728056,1.6745080769062,4.93327876918056
2.76414462499815,-3.66264033615589,-2.7168035030365,1.152163438797,4.70355568648316
2.77413162499579,-3.48398567855358,-2.68055836737156,0.776133677959442,4.46384731541246
2.78411762500036,-3.27793330729008,-2.60152418464422,0.579262641258538,4.22472721697961
2.79410362499766,-3.05936380147934,-2.36014761418104,0.618893789872527,3.91318708390863
2.8040906249953,-2.72346815943718,-2.0047162784636,0.728319753035903,3.45927966999885
2.81407662499987,-2.20572411060333,-1.78225866660476,0.726532917022705,2.92737337664708
2.82406262499717,-1.77574150621891,-1.59139034494758,0.770617487803102,2.50591947983349
2.83404962500208,-1.38073460698128,-1.20678125694394,0.874966752156615,2.03182574902634
2.84403562499938,-1.28458942472935,-0.745231874138117,0.927184726819396,1.75077470109807
2.85402162499668,-1.72585364699364,-0.295542398840189,0.973831474408507,2.00356279185408
2.86400862500159,-2.00598965585232,0.0493661414086819,0.69344118475914,2.12303843394891
2.87399462499889,-1.99787898302078,0.285465745925903,0.130261858329177,2.02236971759087
2.88398062499618,-2.04644127845764,0.49275772690773,-0.410260603800416,2.14453860926618
2.8939676250011,-2.27768520891666,0.622681543081999,-0.877414542809129,2.51901538203832
2.90395362499839,-2.44256558060646,0.732186589837074,-1.34777619123459,2.88421990832173
2.91393962499569,-2.54394869863987,0.90659792304039,-1.77467789769173,3.23157491262823
2.92392704166559,-2.60857388019562,1.29339591622353,-2.20424476504326,3.65187974456486
2.93391304166289,-2.49359364688396,1.85948123574257,-2.68248385548592,4.10748090400934
2.94389904166746,-2.07863370895386,2.28093392193317,-3.23765242338181,4.47278111099289
2.9538860416651,-1.92037472426891,2.51735936254263,-3.61870962023735,4.80832575408429
2.9638720416624,-2.03717285692692,2.68531098425388,-3.89549225091934,5.15129383826306
2.97385804166697,-1.97514208495617,2.82836545407772,-4.45653259277344,5.63573598991624
2.98384504166461,-1.86299248874187,2.49307850718498,-4.90513448596001,5.80917599849157
2.99383104166191,-1.84772131562233,1.51592150196433,-5.34521932482719,5.85520808262431
3.00381704166648,-1.39896505594254,0.154989514052868,-5.76563997745514,5.93495824137319
3.01380404166412,-0.167101728916168,-1.58345625802875,-6.05889655351639,6.26462162904592
3.02379004166869,1.9919007897377,-3.79024938583374,-5.74627166032791,7.16612148635916
3.03377604166599,4.53461981892586,-6.2529510229826,-4.59431404352188,8.98720729306477
3.04376304166362,6.46016406655312,-8.2477760052681,-2.81953645080328,10.8493923607393
3.0537490416682,7.57257520973683,-8.57082472980023,-0.684901764839888,11.4574003283274
3.0637350416655,8.36934780478478,-7.60028574943543,0.883297938108444,11.33977695539
3.07372204166313,9.58343793511391,-6.80210514485836,1.56038563013077,11.8551980317752
3.08370804166771,12.3275912046433,-5.89322914659977,1.41691717743874,13.7370778905432
3.093694041665,16.7669774222374,-4.53816673994064,1.06565622210503,17.4029340176027
3.10368104166264,22.8284537672997,-3.51949348032475,0.288931975364685,23.0999700746597
3.11366704166721,28.9594160842895,-3.03033705353737,-0.0662572856247425,29.1176082917012
3.12365304166451,33.4955035543442,-3.00303055644035,0.640046604126692,33.6359422424503
3.13364004166215,34.2524513483047,-3.91783855497837,2.60396627426147,34.5739862131683
3.14362604166672,30.7349862670898,-5.77521654725075,5.01801147580147,31.672905553124
3.15361204166402,23.7903511476517,-7.70867617070675,6.09108547568321,25.7391883769763
3.16359804166859,15.426005051136,-8.32306358456612,6.18891173243523,18.588642976352
3.17358504166623,8.1177163875103,-7.60772691607475,5.52289398908615,12.4208367750448
3.18357104166353,2.50489573001862,-6.24874862909317,3.24361892223358,7.47277898512535
3.1935570416681,-1.84020296573639,-4.52044558346272,0.0784626173973084,4.88128380761469
3.20354404166574,-4.8017995673418,-2.53707295775414,-3.11983219742775,6.26317580928383
3.21353004166303,-6.0856007874012,-0.723261984586716,-5.52286709189415,8.24983065018269
3.22351604166761,-6.09831965088844,1.13399116963148,-6.16402715206146,8.74475095520537
3.23350304166524,-5.32423249840736,3.10584039509296,-5.0141160607338,7.94575711480013
3.24348904166254,-4.63598773419857,4.55911117404699,-2.8825334751606,7.11244516354124
3.25347604166745,-5.07264610469341,5.12011204719544,-0.604769255742431,7.23277482934374
3.26346204166475,-6.76929407894611,5.0479609143734,0.989517361298204,8.50202307269317
3.27344804166205,-9.02178597450256,4.78936429381371,1.96660222649574,10.4018343010186
3.28343404166662,-11.2561333751678,4.44590352416039,2.40996969223022,12.3399574806065
3.29342104166426,-13.0981559944153,3.97986406445503,2.0689553976059,13.8449118763125
3.30340704166883,-14.2974982774258,3.32461601525545,0.866766543835401,14.7045167511006
3.31339404166647,-15.1110763549805,2.54177528858185,-0.810884557664394,15.3447966421701
3.32338004166377,-15.3539860653877,2.08165408819914,-2.11702755019069,15.6384135220713
3.33336604166834,-14.8329933035374,2.15230102479458,-2.97609945058823,15.2809442765788
3.34335204166564,-13.9464244329929,2.36390152662992,-3.24438139915466,14.5126426110466
3.35333904166328,-12.6982157993317,2.61063648551703,-3.17038020730019,13.3458389771775
3.36332504166785,-11.2345618271828,3.05573940485716,-2.90192167282104,11.9989196244653
3.37331104166515,-9.89257204055786,3.61774863034487,-2.41733250617981,10.807154258889
3.38329804166278,-8.78358093380928,4.13379786372185,-1.85191610813141,9.88277147719433
3.39328404166736,-7.89445507586002,4.51223580032587,-1.20021585702896,9.17187063613407
3.40327004166465,-7.24877570271492,4.79859383136034,-0.578755066394806,8.71241696508594
3.41325704166229,-6.89890755414963,4.98451160788536,0.0344308908283711,8.51125530671533
3.42324304166686,-6.73433708488941,5.07530249476433,0.645109561979771,8.45731386039537
3.43322904166416,-6.725268638134,5.03179862558842,1.22568895965815,8.48825948527554
3.44321604166907,-6.77898174583912,4.78833255261183,1.63245621755719,8.4585835366841
3.45320204166637,-6.92389913856983,4.37351382493973,1.92440535619855,8.41257026318311
3.46318804166367,-7.15326669752598,3.95454269707203,2.14423128247261,8.45016923982201
3.47317504166858,-7.41544239878655,3.66237808853388,2.37342795655131,8.60435700665852
3.48316104166588,-7.62868859946728,3.50950380474329,2.56472677946091,8.78016686381492
3.49314704166318,-7.85566289305687,3.41160796612501,2.68044902443886,8.97414705565345
3.50313404166809,-8.01900954008102,3.41489059299231,2.73628057837486,9.13527356840556
3.51312004166539,-8.11009921967983,3.4948088747263,2.76550963997841,9.25394197046484
3.52310604166269,-8.16298085331917,3.64845235973597,2.74534142374992,9.35320055199692
3.5330930416676,-8.15966782093048,3.72359200447798,2.54603323101997,9.32349728252219
3.5430790416649,-8.11539036512375,3.70565450102091,2.1159775364399,9.16890380547196
3.55306504166219,-8.19219354271889,3.72972134828567,1.78068766593933,9.17571277562955
3.56305204166711,-8.18248073279858,3.76328728973866,1.48591534540057,9.1281578963899
3.5730380416644,-8.14466152667999,3.60574575841427,1.15024672150612,8.98109021104005
3.58302404166898,-8.26504107892513,3.3262573286891,0.849699836969376,8.94968612108401
3.59301104166661,-8.00579600214958,3.07929871380329,0.427755253762007,8.58823758136591
3.60299704166391,-7.31581169128418,2.51273216843605,-0.0844712162017822,7.73576492914503
3.61298304166849,-5.79319615066052,1.39348446071148,-0.656339358910918,5.99447261536224
3.62297004166612,-3.01787312865257,-0.448789004087448,-1.26886670038104,3.30438988228825
3.63295604166342,0.102691724896431,-2.28803785040975,-1.28609391331673,2.6267280691271
3.64294204166799,2.65824305355549,-4.02076533794403,-1.13232376299799,4.95125914680681
3.65292904166563,4.63372544646263,-6.34672223567963,-1.20839947387576,7.95063041139058
3.66291504166293,7.16442201554775,-9.46841852545738,-2.11108575582504,12.0597087551291
3.6729010416675,11.3790196287632,-12.3717797827721,-2.89927405357361,17.0572217181729
3.68288804166514,18.0086593937874,-13.1869097113609,-1.36820036932826,22.3624321831875
3.69287404166243,27.3919038677216,-10.3080611515045,2.9753746882081,29.4181130723384
3.70286004166701,35.4616040897369,-4.01218396425247,8.3663575387001,36.6554078308456
3.71284704166464,38.1845588636398,3.24239071458578,11.5533356523514,40.0256567448018
3.72283304166194,34.767116253376,6.59033010363579,11.487705334425,37.204195963644
3.73281904166652,27.7505136036873,4.01016989082098,9.46670763015747,29.5937665932636
3.74280604166415,19.6757099318504,-1.62045626923442,7.05739282608032,20.9658349069249
3.75279204166873,12.327114071846,-6.94742482602596,5.68460809350014,15.2492367753364
3.76277804166602,6.39346838593483,-9.56739843785763,4.88761973619461,12.502014939853
3.77276504166366,1.45110643208027,-8.7575491297245,3.10078547716141,9.4029382222866
3.78275104166823,-1.07886274337769,-5.90987266123295,0.099072225317359,6.00835709631729
3.79273704166553,-0.396144767403603,-3.50367588490248,-2.75249958515167,4.47313417521189
3.80272404166317,1.25392545640469,-2.06034405693412,-5.14623857617378,5.68340726730564
3.81271004166774,2.13500145256519,-0.825691461861134,-7.12038897335529,7.47930055048769
3.82269604166504,1.89013175547123,0.40119193777442,-8.41833870112896,8.63724374502084
3.83268304166268,0.771719614863396,1.25017943769693,-8.8974075114727,9.01789111797298
3.84266904166725,-0.791976708769798,1.81392016991973,-8.39967497348786,8.6297203402146
3.85265504166455,-2.18843915641308,2.23138754010201,-7.49191111564636,8.1177021662654
3.86264204166218,-3.27302456974983,2.28575012728572,-6.5266124099493,7.65075244850315
3.87262804166676,-4.14852232217789,2.02422127425671,-5.31078858017921,7.03648950600536
3.88261404166406,-4.78454326450825,1.8465154735744,-4.14839836120605,6.59626277579646
3.89260104166897,-5.19293560981751,1.95296111091971,-3.00786678850651,6.31093495180199
3.90258704166627,-5.37946939051151,2.04951735243201,-2.11189793407917,6.13182886138696
3.91257304166356,-5.44105343520641,1.94841139242053,-1.61161191701889,5.99988853312817
3.92255962499621,-5.42444792747498,1.72585774004459,-1.50919559597969,5.88904844636923
3.93254562500078,-5.37942787528038,1.52463268384337,-1.56289583981037,5.80563454689353
3.94253162499808,-5.44070728003979,1.44672847554088,-1.63192923724651,5.86152813047918
3.95251862499572,-5.30521150588989,1.44858701303601,-1.95246482849121,5.8357340894748
3.96250462500029,-4.67010272920132,1.39646580979228,-2.54449950635433,5.49858654538144
3.97249062499759,-4.25320326983929,1.1811627048254,-3.06858603000641,5.37597466636447
3.98247762499523,-4.51122861742973,0.880128893405199,-3.29656662940979,5.65624982208723
3.9924636249998,-4.82347110271454,0.628298816978931,-3.60217778742313,6.05279420551731
4.0024496249971,-4.66284458041191,0.158341868966818,-4.14587470293045,6.2414316291171
4.01243662500201,-4.08258268654347,-0.600691334456205,-4.69577785313129,6.25129115605037
4.02242262499931,-2.99386153757572,-1.62505495816469,-5.01846405029297,6.0653929755057
4.03240862499661,-1.47678155601025,-3.05176739126444,-4.83407561302185,5.90444366616954
4.04239562500152,-0.486629260182381,-4.60879671961069,-4.02021453022957,6.135139779062
4.05238162499882,-0.184693077206612,-5.74019932687283,-2.51232987999916,6.26863631669089
4.06236762499611,0.17566556096077,-6.28225083589554,-0.784906840324402,6.33353082430376
4.07235462500103,0.735238251686096,-6.61075208902359,0.85976523399353,6.70684834530021
4.08234062499832,1.47390648007393,-6.84647615611553,2.54551399827003,7.45159564010629
4.09232662499562,2.25831513762474,-6.81052045762539,4.24897894889116,8.33888471395781
4.10231362500053,2.67166767597198,-6.19843567728996,5.85799207091332,8.93725260464411
4.11229962499783,2.92696939051151,-4.97813872754574,7.20019118785858,9.22993868589594
4.12228562500241,3.17347221493721,-3.75682202339172,8.055994348526,9.43841525669974
4.1322716249997,3.55680397868156,-2.94400262206793,8.280619815588,9.48085811052019
4.14225862499734,3.83246043562889,-2.38254961296916,7.97811177492142,9.16594584001346
4.15224462500191,3.61200695693493,-2.09187969893217,7.21526063203812,8.33561880846227
4.16223062499921,2.86883286416531,-2.12397550418973,6.25334454059601,7.20040220323246
4.17221762499685,2.21281736791134,-2.43197320327163,4.99439106345177,5.97954818191544
4.18220362500142,1.42836076319218,-2.82573654592037,3.87094447016716,5.00092117393332
4.19218962499872,0.210386912226677,-3.01589560031891,2.88362134963274,4.17793741132116
4.20217662499636,-0.893411282300949,-3.09155330836773,1.84875831931829,3.7113060909969
4.21216262500093,-1.72500521600246,-3.10434087663889,0.811462554931641,3.64294479119064
4.22214862499823,-2.14140473842621,-3.07955072879791,-0.25453850671649,3.75952613987394
4.23213562499586,-2.45694212973118,-3.00478764474392,-1.24659567922354,4.07667931119342
4.24212162500044,-2.77948565483093,-2.69041589587927,-1.95510543107986,4.33431833681477
4.25210762499773,-2.62933149576187,-2.2570236338675,-2.2578767426312,4.13588529620403
4.26209462499537,-2.08206953287125,-1.93958019644022,-2.26306526944041,3.6357185385947
4.27208062499994,-1.33555024802685,-1.59243860453367,-2.09821164876223,2.95331124286202
4.28206662499724,-0.672229825258255,-1.1282720080018,-1.74347861677408,2.18279828411964
4.29205362500215,-0.118431259989738,-0.610132979750633,-1.06831904411316,1.23595865478462
4.30203962499945,0.43573860347271,-0.243053990453482,-0.235143438577652,0.551575751404855
4.31202562499675,0.551563759446144,-0.0699058020114899,0.330529944598675,0.646807116662794
4.32201262500166,0.224690955877304,0.117629460543394,0.523454439640045,0.5816590633865
4.33199862499896,-0.380461365580559,0.371752084046602,0.427051395177841,0.682146140365652
4.34198462499626,-0.984496868848801,0.629011592566967,0.191059233248234,1.18380458647791
4.35197162500117,-1.44433243274689,0.824459161162377,0.0141490924358368,1.66313838315573
4.36195762499847,-1.70562286555767,1.01335477843881,-0.00450118660926819,1.98394998101737
4.37194362499577,-1.75848988115788,1.16466566294432,0.168611479997635,2.11593066988575
4.38193062500068,-1.65841653943062,1.2155864328146,0.389400004148483,2.09275611506233
4.39191662499798,-1.51403942942619,1.16650607407093,0.620057458877563,2.00935886964257
4.40190262499527,-1.46084730863571,1.08117824077606,0.842170962095261,2.00306594421459
4.41188962500019,-1.48123654961586,1.0610819453001,1.02520883873105,2.09069600218971
4.42187562499748,-1.44076329231262,1.12599685639143,1.12762399032712,2.14830250398778
4.43186162500206,-1.3692512601614,1.3329415127635,1.27916964054108,2.29953409611247
4.44184862499969,-1.37129486203194,1.64013171136379,1.52252841711044,2.62460938239677
4.45183462499699,-1.49765728533268,2.11142138600349,1.62263143345714,3.0551612694629
4.46182062500156,-1.55012259721756,2.52014673024416,1.55976582527161,3.34468070793761
4.4718076249992,-1.51721388280392,2.66379293829203,1.40985841870308,3.37423051154709
4.4817936249965,-1.32746939599514,2.65391845285892,1.15148048400879,3.18298059321478
4.49177962500107,-0.995050508379936,2.60408555746078,0.742294671535492,2.88485501961416
4.50176662499871,-0.583114165663719,2.4377884054184,0.470897326469421,2.55040756191361
4.51175262499601,0.117326720952988,2.0335154235363,0.454679489135742,2.08702754535017
4.52173862500058,0.948498485684395,1.58303365051746,0.833729921579361,2.02503098696118
4.53172562499822,1.70979017615318,1.33246379524469,1.45300502300262,2.60961027913723
4.54171162499551,2.24507119417191,1.33973773151636,2.0681695318222,3.33355171978878
4.55169762500009,2.74494966030121,1.64094973683357,2.67080228805542,4.16661127755925
4.56168462499772,3.22512417912483,2.0734022051096,3.2286360168457,5.01243585537035
4.5716706250023,3.53939330935478,2.5096220344305,3.54964698672295,5.60584529614899
4.5816566249996,3.66420446634293,2.84292034327984,3.58877772331238,5.86412107623512
4.59164362499723,3.62909076690674,3.05591248244047,3.3401950442791,5.80222404157319
4.60162962500181,3.43352771580219,3.14416830897331,2.86415099859238,5.46610170716495
4.6116156249991,3.2284038823843,3.1455850893259,2.3878672170639,5.10090256996857
4.62160262499674,3.18862235069275,3.04497468084097,2.03121863722801,4.85438280881538
4.63158862500131,3.04905632972717,2.7983923342824,1.76736536979675,4.50014716523545
4.64157462499861,2.7228132712841,2.56697152554989,1.67178912162781,4.09852824687812
4.65156162499625,2.49772061169147,2.30804249078035,1.56122762918472,3.74207163259147
4.66154762500082,2.43745219051838,2.17705141156912,1.4724902844429,3.58454371816786
4.67153362499812,2.53228642702103,2.15950304031372,1.30509619474411,3.57480125421466
4.68152062499576,2.68607346117497,2.20278471529484,1.04979272603989,3.62895520892877
4.69150662500033,2.78676660776138,2.26559053570032,0.82244128704071,3.68447801896251
4.70149262499763,3.0373794400692,2.36619655877352,0.633666268587113,3.90206265424478
4.71147962499526,3.24353296816349,2.52838750362396,0.377673997879028,4.12987737502207
4.72146562499984,3.14827597796917,2.63400926828384,0.15617445230484,4.10780195705874
4.73145162499714,2.9670397746563,2.58200179338455,-0.0170972585678101,3.93323665721808
4.74143862500205,2.64920208871365,2.33762297004461,-0.187107356004417,3.53804494312832
4.75142462499935,2.27735074818134,2.05437711954117,-0.138224669694901,3.07016251016923
4.76141062499664,1.82673156559467,1.85900819599628,0.181868323870003,2.61264918669702
4.77139762500156,1.36349409162998,1.66769256234169,0.543798072338104,2.22171802078443
4.78138362499885,1.00348453223705,1.54030716866255,0.838973704576492,2.02074349120393
4.79136962499615,0.798775851130486,1.55964566498995,1.03621088661253,2.03574813329289
4.80135662500106,0.838759696483612,1.68789001464844,1.04052832446992,2.15294907603951
4.81134262499836,0.882520258426666,1.94995988130569,0.860174539089203,2.30674788022716
4.82132862499566,0.36719695687294,2.13123789221048,0.52909590639174,2.22642112739056
4.83131562500057,-0.4379932898283,2.08467417508364,0.0839087871462107,2.1318408061475
4.84130162499787,-1.30233689367771,1.85464880436659,-0.412565430030227,2.30347863159799
4.85128762500244,-2.08291913330555,1.45049130499363,-0.805211662128568,2.66286367705527
4.86127462500008,-2.58139894545078,1.26144731462002,-0.735868581533432,2.96586790205236
4.87126062499738,-3.08439924001694,1.40511325702071,-0.202682182341814,3.39542957575492
4.88124662500195,-3.40466585934162,1.63622138589621,0.241205831766129,3.78512222929571
4.89123362499959,-3.61756415069103,1.97338952824473,0.494172753095627,4.15033050785754
4.90121962499688,-3.96007299363613,2.41605781316757,0.366087155342102,4.6533357150329
4.91120562500146,-4.53225637435913,2.98055970668793,-0.276146453619003,5.4315136814609
4.92119249999814,-5.22307274401188,3.5170698094368,-1.07633323788643,6.38817361791856
4.93117849999544,-5.566876745224,3.62930828332901,-1.80656978130341,6.88663122917693
4.94116450000001,-5.25618903458119,3.22935844033957,-2.3237174141407,6.59211208371222
4.95115049999731,-4.85908006131649,2.48375482946634,-2.41450976282358,5.96737417043303
4.96113750000222,-4.4271620285511,1.44820431277156,-1.97028991922736,5.05757864243195
4.97112349999952,-3.63452633857727,0.214006338715553,-1.28524840593338,3.86101591343219
4.98110949999682,-2.61349665105343,-1.09441955298185,-0.468156151771545,2.87180937484681
4.99109650000173,-1.8940692704916,-2.0341834679246,0.508592863976956,2.82560922349263
5.00108249999903,-1.04044302821159,-2.44775527685881,1.24820761039853,2.93803502855243
5.01106949999667,-0.233088726997375,-2.61443395972252,1.77385344028473,3.16798852775915
5.02105550000124,0.759831055998802,-2.96094463706017,2.19784147918224,3.7649759023146
5.03104149999854,2.02348569452763,-3.0976528313756,2.5133706843853,4.47291623181283
5.04102749999583,3.28765898108482,-3.00661870032549,2.55424038290977,5.13542612825282
5.05101450000075,5.25437756717205,-3.05901413798332,2.10055141210556,6.43260191133272
5.06100049999805,7.80199130058289,-3.37977192342281,1.35846928685904,8.61042190093305
5.07098649999534,10.8932972717285,-3.50866677582264,0.682310132682324,11.4647378998026
5.08097350000026,14.8259754753113,-3.44245407521725,0.0285265186429024,15.2204090817815
5.09095949999755,18.2550294864178,-3.77242824196815,-0.923001701831818,18.663580806811
5.10094550000213,19.8306213855743,-4.43045927345753,-2.07013419628143,20.4246901935471
5.11093249999976,20.2895693421364,-5.34073918819428,-3.3636084651947,21.2486230394537
5.12091849999706,20.1467639636993,-6.21629833638668,-4.36867145329714,21.5318311688261
5.13090450000163,20.0137047243118,-6.7918514674902,-4.89103509485722,21.6933134271258
5.14089149999927,19.7565886187553,-6.94703598618507,-4.65802793651819,21.4541680589453
5.15087749999657,18.9347905254364,-6.61075325846672,-3.70631026625633,20.3952221531476
5.16086350000114,16.9987072563171,-5.89753328204155,-2.47073629617691,18.1615386199519
5.17085049999878,14.0047457313538,-4.69714171618223,-1.51774203255773,14.849228403495
5.18083649999608,10.5999611735344,-3.28420912384987,-0.804260100871325,11.126187161803
5.19082250000065,7.21209728837013,-1.79162371337414,-0.311795611828566,7.43784103962944
5.20080949999829,3.93766704797745,-0.0886154302954674,-0.0895126855373383,3.93968107796633
5.21079549999558,0.599451870918274,1.30501813441515,0.000854716747999191,1.43611127954645
5.2207825000005,-2.33257302224636,2.26084727436304,-0.0163955926895142,3.2484759684452
5.23076849999779,-4.59138926625252,2.90059757083654,0.0469869093596935,5.4310707445082
5.24075450000237,-6.61180458784103,3.56417468637228,0.0745590162277222,7.51164829778881
5.25074049999967,-8.54214706063271,4.45556283205748,-0.00528230153024197,9.63433155224572
5.2607274999973,-10.4461817407608,5.08946503579617,-0.564023518189788,11.6337220974487
5.27071350000188,-12.3828801369667,5.32324782729149,-1.75365014076233,13.592202791801
5.28069949999917,-13.7162569749355,5.24526526629925,-3.274603317976,15.0456485405719
5.29068649999681,-14.1520628213882,4.76620084136725,-4.78430060505867,15.6807871243868
5.30067250000138,-13.8007597661018,4.16100729703903,-5.91404348015785,15.5804641180186
5.31065849999868,-13.3885708236694,3.72436062097549,-6.43895504593849,15.3161624703808
5.32064549999632,-12.955025510788,3.41784051328897,-6.2685812151432,14.792208429112
5.33063150000089,-12.1263698029518,3.1976194614172,-5.34084911584854,13.6307844270326
5.34061749999819,-11.0592529463768,2.87546302199364,-3.99229173660278,12.1042867048391
5.35060449999583,-10.1776296508312,2.46145091772079,-2.50944486379623,10.7675530857415
5.3605905000004,-9.42245122432709,2.08428182691336,-0.985833688527346,9.70044771493872
5.3705764999977,-8.89987386703491,1.60890085548162,0.513545747995377,9.058700019715
5.38056349999533,-8.48179502427578,1.06472709953785,1.99261531949043,8.7775284927927
5.39054949999991,-8.01669462740421,0.398844134509563,3.23589007258415,8.65433151401845
5.40053649999754,-7.85455776929855,-0.346903025507927,4.2730715239048,8.94838307789519
5.41052250000212,-7.88904640138149,-0.816976771652699,5.30567928314209,9.54226057200984
5.42050849999941,-7.84800011694431,-0.984269119799137,6.28183451414108,10.1005611922706
5.43049549999705,-7.952396889925,-1.01274096697569,6.91022191643715,10.5838285839996
5.44048150000162,-8.39618535518646,-0.999152768701315,7.02258785963059,10.9914045972333
5.45046749999892,-8.79977538228035,-0.675991192907095,6.66371382951736,11.0588468147984
5.46045449999656,-8.86487535774708,0.00302403375506401,6.09728820204735,10.7593191081963
5.47044050000113,-8.45117432534695,0.800690668076277,5.28828849434853,10.0014723027566
5.48042649999843,-7.87290808618069,1.69078994125128,4.14335572242737,9.05587372932382
5.49041349999607,-7.60678551435471,2.56265978872776,2.83833554148674,8.51390390480334
5.50039950000064,-7.72871867179871,3.47003889977932,1.51047979071736,8.60556863152907
5.51038549999794,-8.37785725772381,4.28866780221462,0.194810660630465,9.41377262005213
5.52037249999557,-9.1849899494648,5.10540396094322,-0.742614952772856,10.5347362066767
5.53035850000015,-9.69442568957806,5.96366470634937,-1.34427721738815,11.4609889371597
5.54034449999745,-9.92450017690659,6.60896225631237,-1.79798606872559,12.0584758477227
5.55033150000236,-9.54255303382874,6.91819985747337,-2.25284682154655,11.9998802690998
5.56031749999966,-8.53367795348168,6.72662694633007,-2.77870329737663,11.2157193930521
5.57030349999695,-7.37943992257118,5.80057124376297,-3.12298735499382,9.89220957846418
5.58029050000187,-6.400262850523,4.50030952692032,-3.00997587919235,8.383084467378
5.59027649999916,-4.97918830275536,3.23819679915905,-2.35914101600647,6.39091394072739
5.60026249999646,-2.53119533658028,1.67495495036244,-1.65496785163879,3.4570713772827
5.61024950000137,0.472193069458008,-0.303024642169476,-0.685474353432655,0.885813365117072
5.62023549999867,4.48348650276661,-2.81926484763622,0.421837432980537,5.31298901951352
5.63022149999597,8.8304311645031,-5.25114931941033,1.96335702180862,10.4597253559
5.64020850000088,12.3841665244103,-6.15503471910954,4.09469577848911,14.4228487621601
5.65019449999818,15.3171298956871,-5.46430021047592,6.29547255992889,17.4386358349607
5.66018049999548,18.4079914784431,-4.89237410724163,7.97789075016975,20.650332091695
5.67016750000039,21.0625642347336,-4.52429188191891,8.8558197748661,23.2921955397078
5.68015349999769,22.4107216644287,-3.20460805356503,8.97271263241768,24.3519923267361
5.69013950000226,22.2559435272217,-1.49725675106049,8.38566153645516,23.8304032586413
5.7001264999999,21.1679123497009,-0.516431056559086,7.00448078691959,22.3026896444157
5.71011249999719,19.0613628637791,-0.381872006356716,5.63202057480812,19.8796638857139
5.72009850000177,16.2588847875595,-0.839056735038757,4.81372554838657,16.9772584475509
5.7300854999994,13.3053567588329,-2.11143512696028,4.26749152600765,14.1316014909751
5.7400714999967,10.5654438900948,-3.53031375288963,3.64864093244076,11.7219580464385
5.75005750000128,8.11787250816822,-4.70863120257854,2.78478323221207,9.78907960490562
5.76004449999891,5.82655919373036,-5.58524577319622,1.68006527066231,8.24417259030496
5.77003049999621,4.06731209814549,-5.99063031077385,0.65286852478981,7.27027623510581
5.78001650000078,3.07175229728222,-5.78475803375244,-0.127061823382974,6.55097186621065
5.79000349999842,2.65162868320942,-4.92302813529968,-0.644882909283042,5.62878447457855
5.79998949999572,2.58998499691486,-3.76385534673929,-0.995235865116119,4.6760158022226
5.80997550000029,2.59912594914436,-2.5128894585371,-1.23829351007938,3.82144474609371
5.81996249999793,2.65724668800831,-1.31933094888926,-1.51815177619457,3.33262343045098
5.82994849999523,2.76302866637707,-0.232665973305702,-1.87708018541336,3.34841617616855
5.8399344999998,2.55181729674339,0.698238532841206,-2.1652894449234,3.41874054952985
5.84992149999744,1.89087376713753,1.28906035199761,-2.33021659433842,3.26603575774534
5.85990750000201,0.965627319216728,1.55210684984922,-2.38947637081146,3.00849947974615
5.86989349999931,-0.179432337284088,1.5399816249311,-2.19850747704506,2.69019971292313
5.87988049999694,-1.14558590590954,1.33847400203347,-1.84813836827874,2.55333020783488
5.88986650000152,-1.85036951959133,0.989839469790459,-1.66447425484657,2.67845554005191
5.89985249999882,-2.39690174996853,0.607394436299801,-1.6294225358963,2.96126388569761
5.90983949999645,-2.9043131840229,0.316555683910847,-1.61487934112549,3.33812490154269
5.91982537500007,-3.49924632668495,0.320486328452826,-1.60935372233391,3.86490048321212
5.92981137499737,-3.94437321960926,0.580251661241055,-1.73432099997997,4.34771680505012
5.93979837500228,-4.15647102713585,0.705800298303366,-1.98821470499039,4.66126626289948
5.94978437499958,-4.30827527046204,0.670666279792786,-2.30404401853681,4.93149550382854
5.95977037499688,-4.47468761265278,0.750208439379931,-2.63497171998024,5.24678167055203
5.96975737500179,-4.60878005504608,0.775830207467079,-3.02391213297844,5.56657980222894
5.97974337499909,-4.75695434689522,0.567099372893572,-3.43773537218571,5.89646002669045
5.98972937499639,-4.87568966209888,0.305828382074833,-3.82094522148371,6.20205635785097
5.9997163750013,-5.0386702734232,0.0571351906657219,-4.10099498391151,6.49689328928515
6.0097023749986,-5.172390832901,-0.204536626785994,-4.35770763158798,6.76646716997692
6.01968837499589,-5.23991974174976,-0.501103823259473,-4.56489991754293,6.96750853597236
6.02967537500081,-5.13628018319607,-0.842040642276406,-4.66303607672453,6.98815512251784
6.0396613749981,-4.7950764387846,-1.22122906900942,-4.63129037350416,6.77738954292087
6.0496473749954,-4.20625948369503,-1.56581301569939,-4.53007039278746,6.3769841624327
6.05963437500031,-3.57337908089161,-1.89955600529909,-4.37194560170174,5.95745410534238
6.06962037499761,-3.1041505497694,-2.17273733586073,-4.22168122261763,5.67266520355989
6.07960637500219,-2.68603603899479,-2.45379837423563,-4.20719123750925,5.5620476600938
6.08959337499982,-2.18628738105297,-2.87586472570896,-4.28433823138475,5.60410604057718
6.09957937499712,-1.67891980111599,-3.44813639938831,-4.36252193659544,5.80861549550686
6.10956537500169,-1.39306930840015,-4.24126705616713,-4.39336395263672,6.26343636992209
6.11955237499933,-1.36563007950783,-5.00377116680145,-4.1022217297554,6.61293388170845
6.12953837499663,-1.1542362767458,-5.57112182378769,-3.28983063697815,6.57211118119889
6.1395243750012,-0.376646057367325,-6.09909791529179,-2.01678741663694,6.43492728138804
6.14951137499884,0.662634544372559,-6.4520177257061,-0.308508453369141,6.49328843791971
6.15949737499614,1.96211682736874,-6.16167423248291,1.72145917207003,6.69175264580151
6.16948337500071,3.42157776117325,-5.31899573206902,4.02748788177967,7.49797096629521
6.17947037499835,4.44456451177597,-4.15734226226807,5.87083021759987,8.45602127651429
6.18945637499564,5.10107760608196,-2.90882460325956,6.50156118392944,8.76085333424645
6.19944237500022,5.38860683441162,-1.76249434679747,5.66872296273708,8.01734931050303
6.20942937499785,5.18382564783096,-1.0631177996099,3.88093502283096,6.56231090808668
6.21941537500243,4.43946924805641,-0.752142113596201,1.80919371932745,4.85260619435963
6.22940137499973,3.39661307394505,-0.745063035786152,-0.0475267535448074,3.47769436461743
6.23938837499736,2.36808316290379,-0.90518143504858,-1.6319647590816,3.01504233331296
6.24937437500194,1.20881301820278,-0.920126479715109,-2.66504745841026,3.0676276839324
6.25936037499923,0.39331588447094,-0.591308453679085,-3.08292808055878,3.16366695817801
6.26934737499687,0.127454098463058,-0.246163685917854,-2.99376564323902,3.00657177431673
6.27933337500144,0.219439571499825,0.0366914243996143,-2.48785109639168,2.49777962678491
6.28931937499874,0.423387529850006,0.324644575864077,-1.91839310288429,1.99120144592768
6.29930637499638,0.616377806067467,0.548898890912533,-1.44033425286412,1.66005251490162
6.30929237500095,0.783043332695961,0.634349808096886,-1.11639309704304,1.50395814005493
6.31927837499825,0.598554908037186,0.605391911119223,-0.908733326196671,1.24521628728685
6.32926537499588,0.128773230314255,0.541409046202898,-0.824297778010368,0.994571830984937
6.33925137500046,-0.495277292132378,0.426706263273954,-0.766700291857123,1.00757489486043
6.34923737499776,-1.16403737962246,0.228103537112474,-0.836073485612869,1.45121780520582
6.35922437499539,-1.78149458169937,0.0946932455152273,-0.899218809977174,1.99781986765253
6.36921037499997,-2.12829177260399,-0.0143516984581947,-0.913930258378386,2.31626862815219
6.37919637499726,-2.33948150753975,-0.233749462366104,-0.890985272526741,2.51429260252987
6.38918337500218,-2.51684685409069,-0.391903197169304,-0.676564366221428,2.63549721011773
6.39916937499947,-2.55011400282383,-0.312755432277918,-0.348295868821442,2.59272200593423
6.40915537499677,-2.54587594091892,-0.251916761398315,-0.0537546594813466,2.55887395637987
6.41914237500168,-2.36204298913479,-0.248257720023394,0.121611560583115,2.37816491222528
6.42912837499898,-2.03658813536167,-0.272289666719735,0.36462476670742,2.08681195036705
6.43911437499628,-1.59914272964001,-0.184543388485909,0.738044257387519,1.7708819999811
6.44910137500119,-1.16585118591785,0.0166548344772309,1.11459390878677,1.6130114546159
6.45908737499849,-0.895875883698463,0.239343055039644,1.27872291326523,1.57956037741446
6.46907337499579,-0.760809879899025,0.41888966884464,1.23287197172642,1.50806947011248
6.4790603750007,-0.755662575960159,0.615697701796889,1.02652782440186,1.41558078645336
6.489046374998,-0.779094123244286,0.714248063117266,0.659413313269615,1.2457784178006
6.4990323749953,-0.735055233836174,0.70860930070281,0.246564804911613,1.05034639088902
6.50901937500021,-0.678764673471451,0.623643775507808,-0.141986804790795,0.932637814704689
6.51900537499751,-0.670418357849121,0.546464804671705,-0.310353286452591,0.91891442457822
6.52899137500208,-0.610882008075714,0.515598120689392,-0.196996240206063,0.823301748148499
6.53897837499972,-0.606441047787666,0.485981059782207,0.0030317447707057,0.777147042962395
6.54896437499701,-0.765548463463783,0.397787177190185,-0.0701016837358475,0.86557110297843
6.55895037500159,-0.963077348470688,0.34844665389508,-0.244038734659553,1.05284754535604
6.56893737499922,-0.988443739414215,0.464924724586308,-0.339047802910209,1.1437348635838
6.57892337499652,-0.979451306462288,0.678632526397705,-0.507209705114365,1.29504001968195
6.58890937500109,-1.21523969292641,0.70984408646822,-0.733805099129677,1.58718494885331
6.59889637499873,-1.56135217487812,0.635015440508723,-0.990923616662622,1.95524802460988
6.60888237499603,-1.82439209461212,0.519896701276302,-1.20350257694721,2.2465790766407
6.6188683750006,-1.90784414112568,0.385302640870214,-1.35426586970687,2.3711523438493
6.62885537499824,-1.77871364593506,0.352081027328968,-1.4494486002624,2.32135402919142
6.63884137499554,-1.71847679972649,0.461503701433539,-1.61977463006973,2.40620407069986
6.64882737500011,-1.69063762128353,0.612366177588701,-1.95104687869549,2.65326814039238
6.65881437499775,-1.6586153447628,0.592855480760336,-2.28869917050004,2.88801426173725
6.66880037500232,-1.58062518239021,0.510317719504237,-2.47242964982986,2.97854134022073
6.67878637499962,-1.55267607629299,0.292060966640711,-2.6057794958353,3.04732495593158
6.68877337499725,-1.68593412101269,-0.0404233001545072,-2.62110621750355,3.11676205492591
6.69875937500183,-1.99118801414967,-0.339493726193905,-2.43318913176656,3.16235593328221
6.70874537499913,-2.19057572901249,-0.597392664290965,-2.34998383775353,3.26770929820724
6.71873237499676,-2.1836555492878,-0.830314051285386,-2.37227503180504,3.32948371496587
6.72871837500134,-1.95556151390076,-1.01736516438425,-2.31561112672091,3.19707797880284
6.73870437499863,-1.6099881452322,-1.32232867017388,-2.11511448740959,2.9688927623951
6.74869137499627,-1.44323900341988,-1.74129731297493,-1.75445164784789,2.86236890316435
6.75867737500084,-1.31795246779919,-2.03572099328041,-1.19584038555622,2.70392176247535
6.76866337499814,-1.31166261792183,-2.22070146113634,-0.522218338251114,2.63147977297041
6.77865037499578,-1.51040538489819,-2.3658451411128,0.134787676334381,2.81010949540194
6.78863637500035,-1.71233839273453,-2.5441013109684,0.528082510828972,3.11182026954437
6.79862237499765,-1.64305181086063,-2.79993482977152,0.603258993029594,3.30199571726118
6.80860937499529,-1.41095184803009,-3.14272813975811,0.511988634467125,3.48276580316715
6.81859537499986,-1.20297457337379,-3.46627797067165,0.245666672587395,3.67730647460443
6.82858137499716,-0.786690825819969,-3.67297645926476,-0.0793280053138733,3.75711744002892
6.83856837500207,0.0287957829236984,-4.08107585906982,-0.577714919820428,4.12186412842294
6.84855437499937,0.915674555897713,-4.55746255159378,-1.07069820307195,4.77025360369443
6.85854037499666,1.52615602970123,-4.8813526904583,-1.22618275702,5.25930418109193
6.86852737500158,2.03743013441563,-5.05019104242325,-1.03781295061111,5.54369974277585
6.87851337499887,2.36684881567955,-5.14984279990196,-0.494437047243118,5.68922860972138
6.88849937499617,2.35986490130424,-5.13684560894966,0.376543146371841,5.6655034995729
6.89848637500108,2.14813897669315,-4.85547057509422,1.32209638953209,5.4715659944853
6.90847237499838,1.8850259667635,-4.33009240150452,2.17535893499851,5.19953936392616
6.91845837499568,1.64783424854279,-3.5457965952158,2.68720606684685,4.74437642383201
6.92844537500059,1.15495373010635,-2.73039389401674,2.93636995911598,4.1726774943637
6.93843137499789,0.369426500201225,-2.03690651625395,2.98893233478069,3.63581910948637
6.94841837499553,-0.550215976238251,-1.49843408793211,2.83542830586433,3.25387400095355
6.9584043750001,-1.40644306004047,-1.03851724773645,2.51529792666435,3.06322115017249
6.9683903749974,-2.02112283468246,-0.448981669843197,2.1149478417635,2.95964971341376
6.97837637500197,-2.42474619090557,0.235268276631832,1.78859193205833,3.02221877959299
6.98836337499961,-2.78210403800011,0.842963552176952,1.52538185834885,3.28290728506534
6.99834937499691,-3.01534420788288,1.31706164449453,1.31662924289703,3.54407458029076
7.00833637500182,-3.1966166639328,1.71082922637463,1.10883907914162,3.79141383145946
7.01832237499912,-3.55653909981251,2.17827611088753,1.055551648736,4.30209791461186
7.02830837499641,-3.94967079699039,2.57295644313097,1.20975851297379,4.86657168061465
7.03829437500099,-4.01219448924065,3.09131240308285,1.28349541068077,5.22506243619973
7.04828137499862,-3.90991908609867,3.78979564189911,1.40613549649715,5.62380967865249
7.05826737499592,-3.62659166693687,4.36823671281338,1.31814542591572,5.82847891492533
7.0682533750005,-2.92057195186615,4.62478329956532,0.702816610336304,5.51473592130486
7.07824037499813,-1.8310585051775,4.62791448354721,-0.33027529835701,4.98793038134192
7.08822637499543,-1.25676544904709,4.52611504375935,-1.53996715307236,4.9433466008166
7.098212375,-1.08210619390011,4.35464135169983,-2.80131448030472,5.28972758602709
7.10819937499764,-0.506189365983009,4.20773239731789,-4.12056444525719,5.91103129320007
7.11818537500221,1.29133594214916,4.7013063955307,-6.12393864154816,7.82767237597428
7.12817137499951,3.20154879033566,4.44885841459036,-8.71871660113335,10.2984598373179
7.13815837499715,4.19210045099258,1.72811739653349,-9.075793197155,10.1454481460869
7.14814437500172,5.30637744069099,-0.874546410441399,-6.82388076066971,8.68837278222617
7.15813137499936,7.13046548008919,-2.00291212007403,-3.9850669169426,8.41046688692093
7.16811737499666,9.0072386866808,-2.4031744967401,-1.40518181562424,9.42762601907725
7.17810337500123,11.4730814480782,-2.589302919209,0.24227251008153,11.7641312255007
7.18809037499887,14.4078738284111,-2.46672218263149,1.00843653917313,14.6522520738363
7.19807637499616,16.9438919484615,-1.74199181601405,0.762690782994032,17.050270000169
7.20806237500074,18.688330385685,-1.43886762499809,-0.906671597957611,18.7655558413101
7.21804937499837,19.4914875555038,-2.27250282168388,-2.90833489894867,19.8378619837261
7.22803537499567,19.4115958786011,-3.62297282516956,-4.15122958302498,20.1784214867522
7.23802137500024,18.5905368733406,-5.0423312151432,-4.27892926454544,19.7317612232975
7.24800837499788,17.9466800773144,-6.45768250823021,-3.54090306043625,19.3990459471073
7.25799437499518,17.5389151382446,-7.6315753698349,-2.32876926228404,19.268566452359
7.26798037499975,16.7603139352798,-8.31335194408894,-0.912620408982039,18.7310656334954
7.27796737499739,14.9665869784355,-8.45114158093929,0.0367849798500538,17.187840845752
7.28795337500196,13.3018332266808,-7.94812432944775,0.358290477991104,15.4996715969535
7.29793937499926,12.869073779583,-6.8182428753376,1.55958339214325,14.6469722539674
7.3079263749969,12.5384429705143,-4.9104496049881,2.78414822459221,13.7505108553998
7.31791237500147,11.0310565030575,-2.8006619310379,3.06315601319075,11.7860442722212
7.32789837499877,8.30666039049626,-1.26214371800423,2.34482703208923,8.72306296081562
7.3378853749964,4.93355195403099,0.100597106069326,0.783450883626938,4.99638368702088
7.34787137500098,1.44266948461533,1.58840563371778,-1.14430741220713,2.43182383257891
7.35785737499828,-2.11932214379311,2.93536072969437,-2.82576198130846,4.59268981508788
7.36784437499591,-5.42511918783188,3.82660035610199,-4.12309044241905,7.81502804114412
7.37783037500049,-8.2331567966938,4.22262350142002,-4.92391925096512,10.4814312411862
7.38781637499778,-10.6597314119339,4.03631776213646,-5.46832660317421,12.6421647944682
7.39780337499542,-12.8454907894135,3.41307503253222,-5.84459142208099,14.5194684368837
7.40778937499999,-15.0434229004383,2.37471975266933,-5.99529054164887,16.3672653532572
7.41777537499729,-17.1016463184357,1.00815441101789,-6.14553474783897,18.2002824003974
7.4277623750022,-18.4506691360474,-0.433853936232626,-6.02507625818253,19.4143494540196
7.4377483749995,-18.4612654602528,-1.44161961704493,-5.09575839400292,19.2058153465095
7.4477343749968,-17.1851808106899,-2.06901562392712,-3.30608238816261,17.6221861840544
7.45772137500171,-15.4188831424713,-2.6217581820488,-0.991503002643585,15.6715873966416
7.46770737499901,-13.798243124485,-3.25920467555523,1.23550614237785,14.2316690471432
7.47769337499631,-12.622286195755,-3.99206340283155,3.16636784791946,13.6119272833832
7.48768037500122,-12.124023900032,-4.49351974010468,5.24644932746887,13.9538133042175
7.49766637499852,-11.6014430344105,-4.64940183162689,6.9350562107563,14.2935447849355
7.50765237499581,-11.429740716219,-4.75394244611263,8.17255742311478,14.833395985244
7.51763937500073,-11.6009857821465,-4.75723442852497,8.88162119865418,15.3654594998617
7.52762537499802,-11.8456145739555,-4.6232390499115,9.10683372616768,15.6405672679542
7.53761137499532,-11.9006158232689,-4.38926359266043,9.05158689379692,15.5827313765863
7.54759837500023,-11.5170536792278,-3.99039665400982,8.86756332278252,15.0731373705047
7.55758437499753,-10.7969737493992,-3.47226990491152,8.52870314240456,14.1904925118556
7.56757037500211,-10.0140818595886,-2.81279461115599,8.27623791217804,13.2924701614885
7.57755737499974,-9.2510476988554,-2.11706541091204,7.97501976728439,12.3961602832956
7.58754337499704,-8.38524638414383,-1.40957307457924,7.33860647678375,11.2318474970269
7.59752937500161,-7.67004654049873,-0.851993845850229,6.2856164932251,9.95311419339127
7.60751637499925,-7.35163290381432,-0.308752793893218,5.03842527508736,8.91782282246184
7.61750237499655,-7.30492417573929,0.369869499877095,3.79201407551765,8.23881614124042
7.62748837500112,-7.19762542963028,1.00879892036319,2.53373653650284,7.69696744980748
7.63747537499876,-7.18352136075497,1.524046792835,1.36617986395955,7.46941397887827
7.64746137499606,-7.48587094187737,1.94802723035216,0.217733938694,7.73824798754192
7.65744737500063,-8.10141025722027,2.21620349049568,-0.757057721614838,8.43312175062922
7.66743437499827,-8.68552897453308,2.54074910223484,-1.53690803602338,9.17910158344236
7.67742037499556,-8.75518393099308,2.8944135555625,-2.15470247626305,9.46961552848676
7.68740637500014,-8.5299877756834,3.07391167402267,-2.58352440834045,9.42784295592009
7.69739337499777,-8.19112057864666,3.11424108982086,-2.98722904086113,9.25832010907063
7.70737937500235,-7.3125354963541,2.80397350162268,-3.39278841018677,8.53501353130378
7.71736537499965,-5.53412999868393,2.04814018696547,-3.49052929759026,6.85603878672899
7.72735237499728,-3.16485692739487,0.881974713206291,-3.4108796954155,4.73585251694057
7.73733837500186,-0.830830872058868,-0.904248073250055,-3.60089783191681,3.80452489962225
7.74732437499915,1.75912722766399,-3.54025431185961,-4.42721699237824,5.9353331408904
7.75731137499679,3.83972092330456,-6.54374884486199,-5.28115255236626,9.24416994623422
7.76729737500136,5.86598287582398,-9.28391548275948,-5.93193245172501,12.4815329347925
7.77728337499866,9.68342707693577,-11.7004948675633,-6.09477740764618,16.3651046971586
7.7872703749963,15.7688425076008,-13.8858028399944,-5.42777031540871,21.7009816629927
7.79725637500087,21.8035842132568,-14.0558691072464,-2.76034187078476,26.0879901132347
7.80724237499817,26.808948161602,-10.749645216465,2.07597337201238,28.9583189990828
7.8172293749958,30.7379706859589,-5.80954964339733,6.96800176262856,32.0488183481694
7.82721537500038,31.0187001872063,-1.6526409521699,10.8288352274895,32.8961191602398
7.83720137499768,27.7388870000839,1.07376572549343,12.2328955471516,30.3354999679285
7.84718837499531,23.5551083064079,1.83469488859177,10.4195465040207,25.8220096431374
7.85717437499989,19.3938039708138,1.03304220736027,7.4807639837265,20.8122232940347
7.86716037499718,15.2018251419067,-0.197564845383167,4.88209411740303,15.9677600960316
7.8771473750021,10.9586363983154,-1.2031444349885,2.8127557271719,11.377647517069
7.88713337499939,7.10130541563034,-1.60365707248449,0.701262420415878,7.31382414298279
7.89711937499669,4.1548870164156,-1.41801937758923,-1.71003575921059,4.71148462505996
7.9071063750016,1.99348363101482,-0.809681200683117,-4.1301679122448,4.65702132453785
7.9170923749989,0.114016027450562,-0.0364199674129486,-6.41862603127956,6.41974191054139
7.9270783749962,-1.38245661199093,0.876932512968779,-8.30748543262482,8.46726113507861
7.93706537500111,-2.45144867062569,1.83429011508822,-9.2741465395689,9.7664740233321
7.94705137499841,-3.15100078046322,2.54986783504486,-9.28649527430534,10.1326021521804
7.95703737499571,-3.59768771052361,2.98767284452915,-8.48191723108292,9.68568354858503
7.96702437500062,-3.37952049314976,3.28618782162666,-7.55970022559166,8.90894251095141
7.97701037499792,-2.87425849556923,3.53787069439888,-6.6696271187067,8.07847862237849
7.98699637499522,-2.7237605202198,3.7691029304266,-5.35543967306614,7.09265411277818
7.99698337500013,-3.06251545071602,3.94522515892982,-3.7581785774231,6.25041667893662
8.00696937499743,-3.4264560931921,4.13659984946251,-2.7602857375145,6.03914207697356
8.016955375002,-3.84611251473427,4.27751277655363,-2.28481954291463,6.18951511616699
8.02694237499964,-4.16365842461586,4.24065631449223,-1.99142351076007,6.26777353242165
8.03692837499693,-4.54455365359783,4.04138612866402,-1.76246730342507,6.33182917860469
8.04691437500151,-4.76008026838303,3.64129098236561,-1.99024237319827,6.31493696593881
8.05690137499914,-4.66562434673309,3.36398678004742,-2.37170317411423,6.22169056987455
8.06688737499644,-4.29346310377121,3.48819128841162,-2.26989671766758,5.97944269952255
8.07687337500101,-3.53507046282291,3.76967888116837,-1.80369777515531,5.47362107825798
8.08686037499865,-2.2940047878027,4.00211973667145,-1.27446862533689,4.78578004405603
8.09684637499595,-0.736152756214142,4.14394453704357,-0.75026968896389,4.27517272314849
8.10683237500052,1.4415409719944,4.6188039368391,-0.317227821350098,4.84891984585614
8.11681937499816,3.05704421103001,5.26859273314476,-0.419735943675041,6.1057159251271
8.12680537499546,3.49749450087547,5.7169882196188,-0.908429270982742,6.76325852140021
8.13679137500003,3.62814293324947,5.52650230586529,-1.67015453249216,6.81872899030505
8.14677837499767,3.36293018817902,4.72291361153126,-2.63499481648207,6.36854850931045
8.15676437500224,3.12779668986797,3.55415402054787,-3.34088647753,5.79453582184703
8.16675037499954,3.3164787375927,2.24691774487495,-3.52890486627817,5.33861781029324
8.17673737499717,3.96838598012924,1.06324212603271,-1.17830224692822,4.27398728250014
8.18672337500175,4.7328866225481,0.473850389644504,1.06517528861761,4.87435620047844
8.19670937499905,3.78134875416756,0.64152083337307,-1.06417395293713,3.98027807852743
8.20669637499668,4.60206394314766,0.789073273837566,-0.0833099591732025,4.669964637725
8.21668237500126,4.57822776854038,0.229668032750487,1.32799447596073,4.7724717111874
8.22666837499855,4.65725230336189,-1.17569643527269,2.65765073060989,5.48956906605554
8.23665537499619,4.87513768494129,-2.59481070399284,2.47816752254963,6.05320776997703
8.24664137500076,4.50526328802109,-3.8127465480566,1.48232296228409,6.08536892050291
8.25662737499806,3.05604901492596,-4.79192625135183,1.00269866645336,5.771256136729
8.2666143749957,1.76033935546875,-4.50321033060551,1.31388806819916,5.01038918486782
8.27660037500027,1.77826341032982,-3.62522604972124,1.61224224686623,4.34785116243364
8.28658637499757,1.77510094374418,-4.07429484307766,0.499302515387535,4.47215438359221
8.29657337499521,1.23045005500317,-4.38342602491379,-0.665442377328873,4.60122207802383
8.30655937499978,0.285006739497185,-4.14769669532776,-1.42607917964458,4.39526091883149
8.31654537499708,-0.302319467961788,-4.15544484078884,-1.74545936107636,4.5172721045689
8.32653237500199,-0.15570857539773,-3.77117226004601,-1.60595473587513,4.10183812321655
8.33651837499929,0.592531106472015,-2.37273696184158,-1.27295638918877,2.75706216306464
8.34650437499658,0.764483831673861,-1.87616875067353,-0.871890605092049,2.20559242316943
8.3564913750015,-0.467410193234682,-3.07386168032885,-0.143175507187843,3.11249050510877
8.36647737499879,-0.869129257500172,-3.63093731760979,0.192015545368195,3.73844371902496
8.37646337499609,-0.373489218726754,-2.99980844825506,-0.511891570687294,3.06600357189424
8.386450375001,-0.206857094317675,-2.57862736523151,-1.87200714111328,3.19319897321941
8.3964363749983,-0.397780891433358,-2.43297176152468,-3.01845083355904,3.89725886548215
8.4064223749956,-0.104587246030569,-2.008276501894,-3.98200180649757,4.4609921975993
8.41640937500051,0.648803540468216,-1.66573082149029,-4.76519599735737,5.08946933353739
8.42639537499781,1.52171053782105,-1.22343982815743,-5.30651777386665,5.65433805660753
8.43638137500238,2.25765264809132,-1.34570130676031,-3.81413877010345,4.63201490110475
8.44636837500002,1.36408173680305,-1.46839474841952,-5.00650357067585,5.39277109889301
8.45635437499732,1.01520805343986,-1.17212700247765,-5.06513944923878,5.29718479401477
8.46634037500189,0.131048674285412,-1.57469230502844,-6.94255526483059,7.12010556212299
8.47632737499953,-1.11549014076591,-3.45183593273163,-8.33739744901657,9.09239714176142
8.48631337499683,-2.49495487868786,-4.47309424638748,-5.76543123185635,7.71191087040156
8.4962993750014,-4.05632079452276,-3.79686141729355,-1.12639768302441,5.66909752522682
8.50628637499904,-5.41298153758049,-2.4974206495285,3.57927073538303,6.95331992821041
8.51627237499633,-5.48632491767406,-2.56099830240011,6.38556704342365,8.79965566787962
8.52625837500091,-4.62701050400734,-6.32894436120987,4.98417071521282,9.29014104574681
8.53624537499854,-1.94597032606602,-10.4732110798359,1.28565069437027,10.7297646078869
8.54623137499584,-0.823140321671963,-9.6728722679615,-2.26235147058964,9.96796127991778
8.55621737500042,0.453103810697794,-8.11289477348328,-2.59511183559895,8.52988687546012
8.56620437499805,1.7603031027317,-6.39292576432228,-2.43571205914021,7.06405408222952
8.57619037499535,2.02586244150996,-4.05158747345209,-2.60596192896366,5.22594654222205
8.58617637499992,3.69252662479877,-3.24780494391918,-0.436716842651367,4.93697391417547
8.59616337499756,4.26926323235035,-1.17955808266997,4.05557790577412,6.00547066992203
8.60614937500213,3.3152572542429,1.46869471058249,7.40920166552067,8.24889472202533
8.61613537499943,2.47260389685631,2.01575435981154,7.12851660311222,7.80978774555973
8.62612237499707,2.8224433940649,1.60866082727909,4.51418847799301,5.56164310116783
8.63610837500164,3.67831847548485,1.45049832165241,1.60001630365849,4.26544538825462
8.64609437499894,3.62706499904394,2.04150564372539,-0.645874085426331,4.21194719041889
8.65608137499657,2.72317404448986,3.1035599809885,-1.58474279165268,4.42257517153431
8.66606737500115,1.16252821326256,3.76963268816471,-2.24628390669823,4.53953674286295
8.67605337499845,0.0511213293671608,3.87880751341581,-2.56660548985004,4.65136806294402
8.68604037499608,0.0184307160973549,3.2692478531599,-1.99858123362064,3.8317943791476
8.69602637500066,0.653721487373114,2.19374784350395,-1.19855583250523,2.58387644200799
8.70601337499829,1.06072058737278,1.31470053881407,-0.353459508419037,1.72583292798761
8.71599937499559,1.15953151524067,0.776042461395264,0.523187221884728,1.49012754684564
8.72598537500016,0.949592426642776,0.300609449744225,0.873688039183617,1.3249236233932
8.73597137499746,0.495810338929296,-0.013790365755558,0.827968075275421,0.965167964683941
8.74595837500237,0.43426137752831,-0.0123782631754875,0.42549545109272,0.608097479284879
8.75594437499967,0.441969104111195,0.0962820070981979,0.00446961164474487,0.452357039635689
8.76593137499731,0.595400919914246,0.24787282705307,-0.541608874797821,0.842189626560297
8.77591737500188,0.714460536316037,0.423565577566624,-0.973129296898842,1.27939137285476
8.78590337499918,0.499703488200903,0.29265372812748,-1.04097395539284,1.19120802402992
8.79589037499682,0.158812058195472,-0.211956597268581,-0.506857118010521,0.571883735589577
8.80587637500139,-0.221415272578597,-0.616607894003391,0.299687928557396,0.720446300845091
8.81586237499869,-0.486259569972754,-0.806854948997498,1.37004004955292,1.6626704470492
8.82584937499632,-0.473142511099577,-0.943384510874748,2.10551043570042,2.35520962252012
8.8358353750009,-0.272938817292452,-0.871852013468742,2.31139908492565,2.48539478980094
8.8458213749982,0.0889887750148773,-0.726358085274696,2.14721336245537,2.26848854835758
8.85580737499549,0.558497826308012,-0.428736562728882,1.98797087609768,2.10897204021863
8.86579437500041,1.17180657505989,-0.133655070662498,1.87849345743656,2.2180468878947
8.8757803749977,2.3129848498106,-0.0964568388462067,1.25856171369553,2.63499154161712
8.88576637500228,3.16912744134665,-0.524397595524788,0.0882034939527512,3.21343141112954
8.89575337499991,3.047316198349,-0.962041806578636,-1.11271285951138,3.38375388556072
8.90573937499721,1.91051310271025,-1.28626465201378,-2.10196292996407,3.11813810303373
8.91572637500212,0.468801172748208,-1.49867411613464,-2.45056632578373,2.91051094535087
8.92571266666346,-0.553988892138004,-1.51414117097855,-2.16239156484604,2.69730688984066
8.93569866666803,-0.872717401385307,-1.86077756345272,-1.82601995944977,2.74926857466467
8.94568566666567,-0.907398699223995,-2.56772055387497,-1.65390073478222,3.18621230972742
8.95567166666297,-1.05500902712345,-3.25270081758499,-1.62446994423866,3.78576402536725
8.96565766666754,-1.39379757910967,-3.82211261808872,-2.29400888085365,4.67051317333764
8.97564466666518,-2.03315991282463,-4.09391342103481,-3.29022590875626,5.63200256220618
8.98563066666247,-2.84540043979883,-4.4794840836525,-3.74076381504536,6.49271863231852
8.99561666666705,-3.18170012444258,-5.06079672217369,-4.06369968831539,7.22831476222892
9.00560366666468,-2.8874328571558,-5.58238648474217,-4.26659280896187,7.59632289776442
9.01558966666198,-2.31544535815716,-6.10594792842865,-4.17533180594444,7.75095368332342
9.02557566666656,-1.97996486842632,-6.62022984087467,-4.08822115659714,8.02877675934874
9.03556266666419,-1.6889404669404,-6.58140023589134,-4.04464068889618,7.90736791025522
9.04554866666877,-1.23023897051811,-6.63909939050675,-4.20656880140305,7.95527181952609
9.05553466666606,-0.870154859125614,-7.13510524570942,-4.57543046057224,8.52064905073213
9.0655216666637,-0.991545102596283,-7.70179926037788,-4.82770507156849,9.14371969144331
9.07550766666827,-1.49282690048218,-8.00585564374924,-4.87216671466827,9.49000870594312
9.08549366666557,-1.8553367292881,-8.31670181393623,-4.85579509556294,9.80757612517327
9.09548066666321,-2.33904764413834,-8.84153619647026,-4.71087360978127,10.2876740015601
9.10546666666778,-3.06996538817883,-9.45068275094032,-4.43606850743294,10.882040054428
9.11545266666508,-4.0320873016119,-9.74510584652424,-4.23791455507279,11.3659463197694
9.12543866666238,-4.89661158442497,-9.74316398620605,-4.06227647602558,11.6365003174708
9.13542566666729,-5.36283230781555,-9.77461498975754,-3.91235035836697,11.815648686651
9.14541166666459,-5.44987512946129,-9.76706681907177,-3.96193913251162,11.8656518937925
9.15539866666222,-5.45233271420002,-9.59028502464295,-4.17306600987911,11.7947436938254
9.1653846666668,-5.21537137627602,-9.2899316829443,-4.40762998938561,11.5295330083045
9.17537066666409,-4.51897500872612,-8.64770216703415,-4.60026533961296,10.7873226100855
9.18535766666901,-3.52504599630833,-8.19223973572254,-4.63673559308052,10.0517689052117
9.1953436666663,-2.24236744165421,-8.0660825496912,-4.31564393162727,9.41884716865154
9.2053296666636,-0.474165335297585,-8.19516041994095,-3.52898760437965,8.93528066630421
9.21531666666851,0.867309311628342,-8.24784968018532,-1.8282454097271,8.4924514168265
9.22530266666581,1.54179382324219,-7.69856458067894,0.206639979891479,7.85415335205276
9.23528866666311,2.92821894049644,-7.37881836354733,0.66537747323513,7.96643921633713
9.24527466666768,3.53059441924095,-7.47191890060902,1.79924555897713,8.45765650709182
9.25526166666532,4.70512170374394,-6.85466576635838,2.33633219718933,8.63614851372713
9.26524766666262,6.5038568007946,-5.66228985607624,2.95189431667328,9.11456854471313
9.27523366666719,8.17635577440262,-4.04992423295975,3.64356262564659,9.82497982946176
9.28522066666483,9.41895283520222,-2.30237917006016,3.93769569933414,10.465327026665
9.29520666666213,10.1588635969162,-0.581003905534744,3.75452465236187,10.8460375476111
9.30519366666704,10.4354696416855,1.10922733426094,2.80099814593792,10.8616298286748
9.31517966666434,10.953532948494,2.03978422343731,1.61559387087822,11.2583634373538
9.32516566666891,11.7661684548855,2.09692029118538,0.798137262091041,11.9781809096985
9.33515266666655,12.7597986745834,1.70575267374516,0.563269446641207,12.8856248148629
9.34513866666384,13.5645720148087,0.802797566056251,0.231079038977623,13.5902720870206
9.35512466666842,13.7278941035271,-0.733786388039589,-0.404779058396816,13.7534492061825
9.36511066666571,13.6917536330223,-2.56100502669811,-1.60480283439159,14.0213500217142
9.37509766666335,13.7971368312836,-4.3897638219595,-3.20004459410906,14.8280577473259
9.38508366666792,13.8513405203819,-6.43198984265328,-4.73855783700943,15.990123761943
9.39506966666522,13.7460754358768,-8.20503227412701,-5.72244425654411,17.0006915382151
9.40505666666286,13.5849355280399,-9.7293785905838,-5.75931679844856,17.6743036933511
9.41504266666743,13.8719203805923,-11.2754104757309,-4.58464742660523,18.4549193568542
9.42502866666473,14.5665181446075,-13.0631662559509,-1.47022302657366,19.6211956627435
9.43501566666237,14.9207448077202,-14.565518270731,4.22418763160706,21.2750254819854
9.44500166666694,16.4522264814377,-15.9341386163235,7.2749150955677,24.0311655832265
9.45498766666424,15.4363031673431,-16.9436030960083,9.85395468950272,24.9492597960734
9.46497466666187,14.2352289390564,-17.253353497982,10.6202533507347,24.7610527059628
9.47496066666645,12.529837038517,-17.1346784090996,10.6268946182728,23.7386796099305
9.48494666666375,10.270408591032,-16.2182255887985,9.69751184999943,21.5070655821938
9.49493366666866,8.24129085838795,-14.3694424188137,7.91429467856884,18.358535091324
9.50491966666596,6.34439095079899,-12.0084361410141,5.41797038197517,14.6221830842509
9.51490566666325,4.31088312864304,-9.3403843832016,2.8286198079586,10.6690010681765
9.52489266666817,3.26279252707958,-6.32766031265259,0.768096095323563,7.16066140232425
9.53487866666546,2.62348311066627,-3.4960151553154,-0.886241426467895,4.45984410760444
9.54486466666276,1.63481542289257,-1.33201852977276,-2.26028038680553,3.09123959886049
9.55485166666767,0.555035836100578,0.67419741332531,-2.96743270754814,3.09326103090523
9.56483766666497,-0.409389295578003,2.97384184062481,-3.01924488544464,4.25760197372514
9.57482366666227,-1.12961949884892,5.57191646039486,-2.67755465269089,6.28423361850476
9.58481066666718,-1.49728774130344,7.95513163268566,-2.09094443678856,8.36050468042155
9.59479666666448,-1.69496105253696,9.64825782895088,-1.36236616373062,9.8902888566314
9.60478266666905,-2.17353986620903,10.6296428096294,-1.21909417748451,10.9178648289802
9.61476966666669,-3.12809197425842,11.0094639050961,-2.1162769138813,11.6392389292969
9.62475566666399,-4.46112090289593,10.5801437902451,-3.38370183706284,11.9704001793866
9.63474166666856,-5.84085680544376,9.5730369079113,-4.76996849477291,12.1865189165347
9.6447286666662,-7.27515307724476,8.30627681314945,-5.79046608567238,12.4680224688332
9.65471466666349,-9.04502397894859,6.88552620112896,-6.06051623225212,12.8822663707742
9.66470066666807,-10.6075590455532,5.7068462240696,-5.12803794801235,13.0914161161553
9.6746876666657,-11.2529127287865,5.15593676805496,-3.31165478467941,12.813227003794
9.684673666663,-11.4580774927139,4.74292044460774,-1.70449376821518,12.5175130588628
9.69465966666758,-12.2897714138031,4.25003758728504,-0.809550003781915,13.0290702701878
9.70464666666521,-13.571027340889,3.82484092891216,-0.850126245170832,14.1253285218917
9.71463266666251,-14.6208960807323,3.48878565788269,-1.63194736361504,15.1197050159
9.72461866666708,-15.2922184181213,3.14035124659538,-2.63400868356228,15.8319850885669
9.73460566666472,-15.6095889115334,2.90854481399059,-3.60770983815193,16.2829502608819
9.74459166666202,-15.5676760697365,2.95672820985317,-4.24543758273125,16.4048322206615
9.75457766666659,-15.117434617281,3.22945579648018,-4.3717947435379,16.0648312605147
9.76456466666423,-14.1690244245529,3.47528560638428,-4.02960457384586,15.1352758881719
9.7745506666688,-12.9284955239296,3.65703519523144,-3.26109858870506,13.8258694821224
9.7845366666661,-11.7195696544647,3.85449391365051,-2.24052907705307,12.5389555689993
9.79452366666374,-10.5470228219032,4.10593354225159,-1.06716597318649,11.3682550936131
9.80450966666831,-9.47168244123459,4.41897943496704,0.284369977712631,10.4556689790026
9.81449566666561,-8.41671375989914,4.68869921386242,1.65947547018528,9.77644258768476
9.82448266666324,-7.29168257117271,4.70921533942223,2.77055286347866,9.11160287771166
9.83446866666782,-6.55735765457153,4.83062692523003,3.42680283308029,8.83611190272805
9.84445466666512,-6.30156945168972,5.32136443912983,3.61232329130173,9.00419772158439
9.85444166666275,-6.18269380331039,5.89694505214691,3.43733776152134,9.20950348826218
9.86442766666733,-6.03796527564526,6.04512577593327,2.78007154583931,8.98495231577419
9.87441366666462,-5.88049332618713,5.77861027121544,1.60053831383586,8.39846779597234
9.88440066666226,-5.61724173724651,5.46688292562962,0.353840746879578,7.84636329335809
9.89438666666683,-5.43729075193405,5.12436882019043,-0.719085903167725,7.5060223196139
9.90437266666413,-4.80791517019272,4.25780385911465,-1.68564599946141,6.63975484652567
9.91435966666904,-3.62260854363441,2.8182152724266,-2.43331703960896,5.1948687950133
9.92434566666634,-1.75525870978832,0.581406778693199,-3.44553585022688,3.91033045608639
9.93433166666364,1.24909799516201,-2.84966393709183,-4.60534306168556,5.55787864852183
9.94431866666855,4.62586795806885,-7.05861313998699,-6.06852457880974,10.3946940498075
9.95430466666585,6.59401384949684,-11.441059756279,-7.12732084751129,15.0059178145648
9.96429066666315,5.25842734873295,-15.0873319816589,-7.06785817265511,17.4709262391969
9.97427766666806,2.97459437727928,-18.2416802930832,-6.3882380515337,19.5554774175284
9.98426366666536,1.61643645465374,-22.2789932513237,-4.47624121785164,22.7816404708892
9.99424966666265,1.55189079523087,-25.9593126440048,-0.600322521328926,26.0125866672103
10.0042366666676,2.87791826784611,-27.5081207871437,5.14320036292076,28.1323947215597
10.0142226666649,5.76214860498905,-26.3028552746773,11.3108165359497,29.2057720811573
10.0242086666622,10.3313038337231,-22.4821606063843,16.2625147390366,29.6083226487645
10.0341956666671,14.9070365953445,-17.4211335039139,18.6342892491817,29.545767352335
10.0441816666644,18.4557304859161,-12.0826969492435,18.3029848408699,28.6636495830721
10.0541676666689,19.8291946649551,-7.45187113702297,15.1926894521713,26.0680869511669
10.0641546666666,18.5721637523174,-4.26602855265141,10.848949649334,21.9276987973821
10.0741406666639,15.7492859101295,-2.51134754776955,6.76274636685848,17.3228638396528
10.0841266666685,12.6294385099411,-1.75058561503887,3.21234801292419,13.1486290855017
10.0941136666661,9.69992207229138,-1.42858880460262,-0.0568910694122314,9.80472288108849
10.1040996666634,7.06066609740257,-0.91264511346817,-2.85731911182404,7.6713883586312
10.114085666668,5.32676668167114,-0.0628049433231354,-5.23284110248089,7.46732976007361
10.1240726666656,4.42299413323402,1.04510793685913,-7.66108977556229,8.90771711784414
10.1340586666629,4.03572602391243,2.50346491634846,-9.72978672623634,10.8269649886529
10.1440446666675,4.06546262383461,4.17414599061012,-11.2025565075874,12.6273019050949
10.1540316666651,4.53358193814755,5.6020693820715,-11.8660307121277,13.8830555502958
10.1640176666624,4.98551557481289,6.50443742930889,-11.7230709671974,14.3036171900832
10.174003666667,4.59943912804127,6.9868145942688,-11.1158715355396,13.9116145167218
10.1839906666646,3.37446323633194,7.13878197491169,-10.2364046931267,12.9280002807915
10.1939766666619,1.93012027859688,6.98247596025467,-9.28163799226284,11.7740875928796
10.2039626666665,0.637635358572006,6.5684357893467,-8.16719728052616,10.500192331015
10.2139496666641,-0.482054398655891,5.93937186419964,-6.94662434220314,9.15227317862612
10.2239356666687,-1.24508855938911,5.31278481960297,-5.81415432572365,7.97372676879867
10.233921666666,-1.78853930711746,4.88666488587856,-4.81463654458523,7.0893646835551
10.2439086666636,-2.2669503057003,4.7051509398222,-3.98045872628689,6.56670090126677
10.2538946666682,-2.51455883860588,4.534768922925,-3.24200626015663,6.11536915713451
10.2638806666655,-2.39343844413757,4.01196352422237,-2.65283379435539,5.3723296665451
10.2738676666631,-2.09712786734104,3.25667400062084,-2.3393376660347,4.52508249140575
10.2838536666677,-2.01991889297962,2.42501925587654,-2.17492273271084,3.83289441791062
10.293839666665,-2.25663289368153,1.64201685369015,-2.06422865465283,3.47126076567834
10.3038266666626,-2.51222521483898,0.861926949620247,-1.80003449454904,3.20847592762059
10.3138126666672,-2.59537905335426,-0.119538722634315,-1.42489745736122,2.9632102019252
10.3237986666645,-2.81804336428642,-1.50293205857277,-0.495449858084321,3.23197211274483
10.3337856666622,-2.96498272418976,-2.69423442006111,0.211677977442741,4.0118361421075
10.3437716666667,-3.08872325599194,-3.45152661502361,1.26357804000378,4.8010287220034
10.353757666664,-3.48557319760323,-3.72062308073044,2.80682314217091,5.8198378651076
10.3637446666689,-3.2440375828743,-3.77853215038776,4.02978759169579,6.4062682651291
10.3737306666662,-2.92275822579861,-3.79326888799667,5.04159914374352,6.95335361025975
10.3837166666635,-2.73204719424248,-3.5617296731472,5.5945720821619,7.17281234374989
10.3937036666684,-2.48064498782158,-3.17956501364708,5.79236993908882,7.05795882269603
10.4036896666657,-2.05309307098389,-2.91833714604378,5.85317221105099,6.85503521422906
10.413675666663,-1.72489470362663,-2.82390870630741,5.83839688181877,6.71093140106417
10.423662666668,-1.70307114064693,-2.56122312784195,5.72366164684296,6.49773944293229
10.4336486666653,-2.0365893048048,-2.06451326787472,5.48263357043266,6.20235293234038
10.4436346666625,-2.46691864907742,-1.54735511004925,5.00030376791954,5.78645256000875
10.4536206666671,-2.85657651543617,-1.11801511466503,4.23238893628121,5.22715059024671
10.4636076666648,-3.12153198301792,-0.759780185222626,3.28138024091721,4.59224173322165
10.4735936666621,-3.16048321008682,-0.469980483055115,2.34928845763206,3.96594150648452
10.483580666667,-2.94589039564133,-0.177652444839478,1.43126332104206,3.27999166286282
10.4935666666643,-2.57983656942844,0.235396623015404,0.519829165935516,2.64219428824691
10.5035526666688,-2.1080428647995,0.828848081231117,-0.437603353634477,2.30701767585442
10.5135396666665,-1.76880787789822,1.24415417432785,-1.42584587574005,2.59029677445985
10.5235256666638,-1.53786449432373,1.44576207697392,-2.32603188827634,3.14096792906198
10.5335116666683,-1.49267721176147,1.62659014463425,-3.16441253900528,3.8584177423067
10.5434976666656,-1.41909526526928,1.81544293105602,-3.86955692589283,4.50368018519923
10.5534846666633,-1.07047842085361,2.12688785612583,-4.4366462123394,5.03521654107491
10.5634706666679,-0.508331785798073,2.46316999912262,-4.73937001526356,5.36537377920772
10.5734566666652,0.196849438548088,2.72927269041538,-4.60533019781113,5.35693432393706
10.5834436666628,1.10212939918041,2.78970483362675,-4.01710848927498,5.01341229961224
10.5934296666674,2.16941816389561,2.97523815572262,-3.0099700319767,4.7558739308886
10.6034156666647,3.3910465246439,3.54976159214973,-1.8425313270092,5.24356039198665
10.6134026666623,4.6293178153038,4.09977700889111,-0.5762011487782,6.21053642784378
10.6233886666669,5.73119987726212,4.32402416110039,0.732529821395874,7.21667769254963
10.6333746666642,6.30991342842579,4.13745529711247,2.70922434210777,8.01707180619591
10.6433616666691,6.25555011034012,3.228486328125,4.02817522197962,8.11056266684605
10.6533476666664,5.86778323352337,1.77441067993641,3.97660833477974,7.30703956366257
10.6633336666637,4.74521723091602,0.388356276154518,4.04970203876495,6.2504394860352
10.6733206666686,3.93215955555439,-0.960516268014908,3.6511909031868,5.45120769031717
10.6833066666659,3.19412107229233,-2.22238224327564,3.30380255877972,5.10455714113263
10.6932926666632,2.49799075305462,-2.8485909730196,3.02959913492203,4.85107196939351
10.7032796666681,2.03129815936089,-2.73657644748688,2.77366124331951,4.39411191913173
10.7132656666654,2.06910684049129,-1.79752764701843,2.41977313399315,3.65617433653792
10.7232516666627,2.69011037886143,-0.156839280724525,2.10920982286334,3.42199627225094
10.7332386666676,3.80138950109482,1.53824514806271,1.91325325414538,4.52518489004265
10.7432246666649,4.75365651726723,2.76908989012241,1.70615320801735,5.75986700132592
10.7532106666622,5.08275009334087,3.65422209978104,1.32660386189818,6.39902847878394
10.7631976666671,5.13205147683621,4.29807655692101,0.904226877093315,6.75492714211697
10.7731836666644,4.84962218999863,4.07749736309052,0.510482245534659,6.35652517140798
10.783169666669,4.00818212985992,3.14557397961617,0.236881231069565,5.10061490067617
10.7931566666666,2.68285807728767,2.19515468358994,0.129044541120529,3.46887359835258
10.8031426666639,1.15412927269936,1.40880767405033,0.0780474650859833,1.82286720508407
10.8131286666685,-0.352582426071167,0.545903069972992,0.236793522834778,0.691661551220445
10.8231156666661,-1.50443420827389,-0.358334916830063,0.405097439289093,1.59869638611053
10.8331016666634,-2.34294773697853,-0.821212202310562,0.689037354290485,2.57654149103876
10.843087666668,-2.48744705379009,-1.15820419728756,0.970173821747303,2.91033796189159
10.8530746666656,-2.2971862578392,-2.0432334959507,1.0157271400094,3.23783406695462
10.8630606666629,-1.07344880640507,-2.69458466827869,1.15230260252953,3.12103831477465
10.8730466666675,-0.398340396881103,-3.85327564626932,0.790703623741865,3.95368442070408
10.8830336666651,-1.03440168499947,-4.9207447975874,-0.217590389549732,5.03299729649615
10.8930196666624,-2.36485491514206,-5.65324070513249,-1.72893337547779,6.36717204547509
10.903005666667,-3.3714858341217,-5.83635503411293,-3.19089487105608,7.4573297427451
10.9129926666647,-3.55741793632507,-5.31767543077469,-3.88413461923599,7.48461061786782
10.9229786666619,-3.28730756342411,-4.97922981798649,-3.86464409530163,7.10876885123021
10.9329649166684,-2.76269069731235,-5.25348820567131,-3.54083961814642,6.91152251082054
10.9429519166661,-2.19383321285248,-5.59996263027191,-2.98592101871967,6.71477549559838
10.9529379166634,-2.00962720870972,-5.42449938297272,-2.11752383261919,6.16017063526394
10.9629239166679,-2.04276221036911,-5.09919655680656,-1.06817403316498,5.59604134528936
10.9729109166656,-2.12107163071632,-5.09986547827721,-0.00373870968818665,5.52336733678861
10.9828969166629,-2.44457000613213,-5.24319593667984,0.860361942350865,5.84869633483758
10.9928829166674,-3.02497632622719,-5.42760133087635,1.2223231561482,6.33272547006593
11.0028699166651,-3.73497624099255,-5.42555071234703,0.95291795745492,6.65542640907915
11.0128559166624,-4.22726151287556,-4.95593041777611,0.453826818913221,6.52969715880012
11.0228419166669,-4.58512923717499,-4.46770516008139,-0.0192607283592224,6.40188804140401
11.0328289166646,-4.73607218563557,-4.29288773775101,-0.519767039269209,6.41322248573948
11.0428149166619,-4.8031204533577,-4.17484034746885,-0.924762298464775,6.43074205088175
11.0528009166665,-5.03519878149033,-4.03821693778038,-1.33722328260541,6.59155436245807
11.0627879166641,-5.37342220008373,-3.83243032246828,-1.86327037766576,6.8580583853751
11.0727739166687,-5.71921776294708,-3.62680421322584,-2.33157037094235,7.16235862099479
11.082759916666,-5.79948132276535,-3.41271659821272,-2.50176103770733,7.17909649486697
11.0927469166636,-5.59829558908939,-3.12191292911768,-2.3938114964962,6.84233785489779
11.1027329166682,-5.28343472063541,-2.7222732809186,-2.12037932038307,6.31042492432382
11.1127189166655,-4.90939476728439,-2.37536557763815,-1.90141512751579,5.77580280961993
11.1227059166631,-4.44477501153946,-1.99932295292616,-1.8401977032423,5.20957241626616
11.1326919166677,-3.87098130762577,-1.52141686141491,-2.13780753135681,4.67647587305993
11.142677916665,-3.04909667551517,-0.805061023235321,-2.64624866008759,4.11676399114471
11.1526649166626,-1.73310887217522,0.00991746246814728,-3.07695047199726,3.53148537105825
11.1626509166672,-0.286555666923523,0.460254809260368,-3.52300064027309,3.56447501759487
11.1726369166645,0.906617803573608,0.405297414064407,-3.70882866203785,3.83948328293761
11.1826229166691,1.40549639582634,0.0537780117988586,-3.52817133307457,3.79819761844524
11.1926099166667,1.22651429414749,-0.267466846704483,-3.06963852882385,3.31640717124331
11.202595916664,0.732970116734505,-0.413650161623955,-2.35359317779541,2.49955045854298
11.2125819166686,0.143435708284378,-0.334451379776001,-1.3509290099144,1.39908567202777
11.2225689166662,-0.536039401888847,0.104863965511322,0.0155173774436116,0.546420607813103
11.2325549166635,-1.3338112860918,1.03855145394802,2.10732014894485,2.70156248855221
11.2425409166681,-0.668739037513733,2.17977826058865,2.75705573558807,3.57770897289994
11.2525279166657,0.616288343667984,2.99897843599319,4.00024161100388,5.0374215555679
11.262513916663,2.75315681219101,3.97723924934864,4.92693992257118,6.90456671194499
11.2724999166676,4.99840985476971,4.75738119363785,5.53857271313667,8.84830857263354
11.2824869166652,6.33049562752247,4.68416177451611,5.81028580784798,9.78651968724319
11.2924729166625,6.59029268145561,3.7422402369976,5.28906383514404,9.24178099020313
11.3024589166671,5.89199479937553,1.99354327261448,3.90355088353157,7.3435364093858
11.3124459166647,4.9748046451807,-0.579680095911026,2.29221261620522,5.5080803324931
11.322431916662,3.86976625621319,-3.61707298457623,0.676107113957405,5.33998395906029
11.3324179166666,2.87176290392876,-6.32063663721085,-0.311442586183548,6.94942200190218
11.3424049166642,2.14887864947319,-8.41768088936806,-0.0265732562541962,8.68767731579286
11.3523909166688,2.07263505041599,-9.51290881991386,1.34345860719681,9.82833308844684
11.3623769166661,3.21588908672333,-9.55473336875439,2.8746678006649,10.4832527075462
11.3723639166637,5.38986106216908,-9.42974913418293,3.25349720835686,11.3382544991677
11.3823499166683,7.96174132525921,-10.0143052232266,2.3181719148159,13.001905824183
11.3923359166656,10.3831323838234,-10.8572293066978,0.688085135221481,15.0386943406512
11.4023229166633,11.8010494351387,-11.4992535853386,-0.758275111913681,16.4946228188418
11.4123089166678,11.9725517785549,-12.0515616953373,-1.34000056385994,17.0404734939451
11.4222949166651,11.0655515670776,-12.2129179501534,-0.462915877103806,16.4868458915011
11.4322819166628,9.48525499820709,-12.1773247790337,1.54085826873779,15.5123030320909
11.4422679166673,8.18462022900581,-11.9532150363922,3.3499803596735,14.869086266798
11.4522539166646,7.11039666652679,-11.2003497684002,4.00797163009644,13.858910934035
11.4622409166623,6.09222626745701,-9.79553866624832,3.6606177842617,12.1023932021031
11.4722269166668,5.70152876615524,-8.0122109824419,2.87939644396305,10.2466520864117
11.4822129166641,6.23058951616287,-5.97080006361008,2.29859777569771,8.93052354864861
11.4921999166691,7.59910519659519,-3.35641638994217,2.36220086395741,8.63666160581006
11.5021859166664,8.21331310093403,-0.744607830047607,3.13555302143097,8.82296127526057
11.5121719166636,7.19440361380577,1.64936563432217,4.42001497685909,8.60327744232878
11.5221589166686,4.94059375584126,4.02447364211082,6.31334340512753,8.97018169868201
11.5321449166659,3.74496503949165,6.88338553547859,6.74128065347672,10.3368575701704
11.5421309166632,2.67814054369926,9.13982897937298,7.18379208683968,11.9296177344847
11.5521179166681,1.99445426881313,10.6411232328415,6.80822659492493,12.7891868723054
11.5621039166654,1.07793479025364,11.4413310670853,5.65416982769966,12.8076397684803
11.5720899166627,-0.629605377316475,12.1031680512428,3.57923272848129,12.6370086148741
11.5820769166676,-2.68899999260902,12.3205429708958,0.995903032422066,12.6498348964691
11.5920629166649,-4.59997180938721,11.852151761055,-1.93865838289261,12.8604680451295
11.6020489166622,-6.69408953011036,10.8049329793453,-5.2826728284359,13.7645938384528
11.6120349166667,-8.04093601405621,9.11047946512699,-7.61435882806778,14.3400121488519
11.6220219166644,-8.38545279085636,7.8754989874363,-9.35015917360783,14.8244655681274
11.632007916669,-8.87947819411755,7.17131471335888,-10.3197766327858,15.3873544661985
11.6419939166663,-9.35714835047722,6.54113747835159,-10.5455189180374,15.5419005920839
11.6519809166639,-9.52951023459435,5.92229390144348,-10.3275136685371,15.2493497874544
11.6619669166685,-9.34102172970772,5.5746044254303,-9.42608994662762,14.3938206580745
11.6719529166658,-9.19685921251774,5.18441738605499,-7.92859404444695,13.2031438123403
11.6819399166634,-9.24551038563252,4.58088649749756,-6.23235186696053,12.0543018540022
11.691925916668,-9.53560361802578,4.08775454878807,-4.45782161146402,11.2920169646915
11.7019119166653,-9.91868804454804,3.62277168095112,-2.69953433632851,10.8991895483278
11.7118989166629,-10.3409470617771,3.24377972066402,-1.25864240527153,10.910612893647
11.7218849166675,-10.776565797329,3.16505690217018,-0.231673116087914,11.2341278259976
11.7318709166648,-10.7889735889435,3.42366521716118,0.593151496052742,11.3346929080319
11.7418579166624,-10.2595666837692,3.66390801250935,1.45567603111267,10.9909928200501
11.751843916667,-9.62285284638405,3.88435798287392,2.23381764292717,10.6149646774792
11.7618299166643,-9.15783840358257,4.21685054540634,2.68560743808746,10.4336149085509
11.7718169166619,-8.85800254046917,4.55131128072739,2.84272270739079,10.3566266598806
11.7818029166665,-8.81590901970863,4.82093224167824,2.71250170648098,10.4076560776332
11.7917889166638,-8.88626564204693,4.95840203583241,2.18930454432964,10.4088674791157
11.8017759166687,-8.80146698176861,4.98624589204788,1.28989182606339,10.197661008784
11.811761916666,-8.8128760689497,4.88307644963265,0.19504140637815,10.0771653439757
11.8217479166633,-8.85687636673451,4.76608535885811,-0.906102152243257,10.0985568144088
11.8317349166682,-8.68870927512646,4.59789604783058,-2.00092128932476,10.0318494277176
11.8417209166655,-7.97625411450863,4.43675204694271,-2.92935271561146,9.58574492450777
11.8517069166628,-6.54322318017483,3.90265625953674,-3.50276284217834,8.38533499594523
11.8616939166677,-4.67461561024189,2.67954621434212,-3.79345833778381,6.58956183511574
11.871679916665,-2.31545763731003,0.836137804985046,-3.92671053528786,4.63460096740196
11.8816659166623,0.0954797691106796,-2.040623883605,-4.41701301634312,4.86654561338873
11.8916529166672,1.95524693369865,-5.97034573495388,-5.19007456719875,8.14891973084183
11.9016389166645,2.0935195505619,-9.91988087654114,-5.67613664746285,11.6191818969333
11.9116249166691,0.41272688627243,-12.6730400276184,-4.91447775185108,13.5988373987525
11.9216119166667,-0.662939769029617,-15.6489289784431,-3.33336842000484,16.0137382373137
11.9315977500009,2.1698742467165,-19.9713895940781,-1.11855305850506,20.1200377114384
11.9415837499982,8.06484177052975,-23.1043721795082,1.4822083568573,24.5163339063175
11.9515707499959,14.3384206008911,-23.0226608490944,3.4992673766613,27.3473598373563
11.9615567500005,18.6671166872978,-19.7848634147644,5.01339334487915,27.6592873839612
11.9715427499978,20.3789802861214,-15.4601305711269,6.20218140363693,26.3208193060557
11.9815287500023,19.3132340168953,-12.1881889057159,7.18506911873818,23.9411398064884
11.99151575,16.1932416057587,-10.002937066555,8.20591812729836,20.7272023189783
12.0015017499973,12.9794575166702,-8.34962982416153,8.65068073868752,17.6922839924718
12.0114877500018,10.4390668487549,-6.9081718826294,8.32730515480042,15.0346588446127
12.0214747499995,8.42887187540531,-5.5532889854908,6.76701892733574,12.1522608929899
12.0314607499968,6.41017212688923,-4.00162681639195,4.00365989327431,8.5517610125066
12.0414467500013,4.5506061065197,-2.30787087500095,1.11169076621532,5.22208198634036
12.051433749999,3.49759273409843,-0.633645803332329,-1.22081150472164,3.75832977102323
12.0614197499963,3.2785572052002,0.729600951075554,-3.1366949826479,4.59566211875383
12.0714057500009,3.51479056477547,2.11569862425327,-4.58716874599457,6.15402717634
12.0813927499985,4.13729537576437,3.81053688526154,-5.51113874673843,7.87464632006172
12.0913787499958,4.69913152366877,5.26570596277714,-6.05587237358093,9.29962830269388
12.1013647500004,4.83184402316809,6.20933722615242,-6.27221409022808,10.0619707337063
12.111351749998,4.5995361918211,6.78724093794823,-6.17525029778481,10.2643114221035
12.1213377499953,4.11977653294802,7.24706714630127,-5.80795452296734,10.1599644017725
12.1313237499999,3.27640952289104,7.51652789354324,-5.23405498445034,9.72771209053569
12.1413107499975,1.99179846346378,7.55587380766869,-4.52594605922699,9.0300984406319
12.1512967500021,0.712354588508606,7.3892065268755,-3.94845633029938,8.40821797700737
12.1612827499994,-0.423457696437836,7.2833561360836,-3.45116642653942,8.07075849777281
12.171269749997,-1.41794044017792,7.08860292434692,-2.82178675174713,7.76024013696015
12.1812557500016,-2.2143692189455,6.84079967916012,-2.11679044559598,7.49538345108354
12.1912417499989,-2.97092934250832,6.41658009052277,-1.39509770750999,7.20730315928016
12.2012287499965,-3.45756561934948,5.91744539022446,-0.690567862987518,6.88823663442157
12.2112147500011,-3.66292392611504,5.36784103274345,0.0271438714116812,6.49857413830646
12.2212007499984,-4.02218504190445,4.66100387692452,0.917500787526369,6.2245270781913
12.231187749996,-3.3071307939291,4.04667961299419,0.149778183102608,5.22830407326415
12.2411737500006,-3.23219521701336,3.12587704896927,-0.145138271301985,4.49880632656635
12.2511597499979,-2.98887093901634,2.10610919058323,-0.65655183210969,3.71484935374265
12.2611467499955,-2.38461441099644,0.751948424577713,-0.98750533439219,2.68830413231275
12.2711327500001,-2.19260997533798,-0.661491998434067,-1.08793535627425,2.53549078234875
12.2811187499974,-2.38750176608562,-1.94864016473293,-1.14526262797415,3.28770279400475
12.2911057500023,-2.6031616973877,-3.08383439898491,-1.19937327325344,4.2101047103016
12.3010917499996,-2.38511902570725,-4.20960116744041,-0.946081246733666,4.92997002842081
12.3110777499969,-1.72440412223339,-5.66260151267052,-0.380041608586907,5.93153075456338
12.3210647500018,-1.11185799658299,-7.12292374134064,0.321049013324082,7.21632477778516
12.3310507499991,-0.878517839312553,-8.08045792937279,1.08256636977196,8.19985023566377
12.3410367499964,-0.972492535114288,-8.15336218357086,1.96240041732788,8.44239729136607
12.351022750001,-1.00695719361305,-7.34885255277157,2.97033643484116,7.99014988396908
12.3610097499986,-0.831483421325684,-6.14948044896126,4.04939798355103,7.40979746695437
12.3709957499959,-0.563948746919632,-4.749043648839,5.04751067876816,6.95333141882428
12.3809817500005,-0.254970762133598,-3.25080865859985,5.80996538043022,6.66246686642181
12.3909687499981,0.0354861670732498,-1.78153492748737,6.19817956924439,6.44922909645095
12.4009547499954,0.341718884110451,-0.524867126941681,6.2891447031498,6.32025303242353
12.41094075,0.707001462578774,0.285588537454605,5.86327210664749,5.91264506607698
12.4209277499976,0.842160437107086,0.680486093759537,4.84509293675423,4.96459677027392
12.4309137500022,0.625803517699242,0.690993540287018,3.40377766728401,3.52913651248921
12.4408997499995,-0.0406814181804657,0.280688570737839,1.84724886059761,1.86889523636484
12.4508867499972,-1.01599231123924,-0.25396679520607,0.311378266811371,1.09256392701157
12.4608727500017,-1.86185462057591,-0.693180983662605,-1.15635070301592,2.29872779002576
12.470858749999,-2.54730500042439,-1.18453596353531,-2.46437277138233,3.73698024752958
12.4808457499967,-3.00192952573299,-1.58904575765133,-3.67885466516018,5.00705691447062
12.4908317500012,-3.28049906551838,-1.71851831495762,-4.62701342761517,5.92657005164393
12.5008177499985,-3.31717514097691,-1.5553073233366,-5.29693067908287,6.44050513585301
12.5108047499962,-3.01214578092098,-1.38866927862167,-5.5320138913393,6.45016296421096
12.5207907500007,-2.43765801250935,-1.28465432882309,-5.4139673781395,6.07482971794877
12.530776749998,-1.77636481940746,-1.01657586336136,-5.08935101509094,5.48547101098936
12.5407637499957,-1.15596822202206,-0.5165418612957,-4.55112533926964,4.7239623070615
12.5507497500003,-0.647665087580681,-0.0343336808681488,-4.01688687980175,4.06891005951671
12.5607357499975,-0.20010165989399,0.117148380875587,-3.50735436826944,3.51501053797181
12.5707227499952,0.0143028742074966,0.116081264019012,-2.96081365942955,2.96312283881912
12.5807087499998,-0.055507618188858,0.335940080881119,-2.40582518577576,2.42980074453285
12.5906947499971,-0.159207987785339,0.594577631950379,-1.78304745599628,1.88630007531282
12.600681750002,-0.257262870669365,0.658890572190285,-1.12828677222133,1.33167263661754
12.6106677499993,-0.401649336218834,0.397152827382088,-0.597280141934753,0.82206820004925
12.6206537499966,-0.75894929587841,0.139014043807983,-0.361739750504494,0.852164646758616
12.6306407500015,-1.21698567152023,0.215188060998917,-0.224507280215621,1.25609057999487
12.6406267499988,-1.63173627912998,0.368614321947098,-0.00055833600461483,1.67285388325238
12.6506127499961,-1.82068729877472,0.367472945451736,0.237896234616637,1.87257395688484
12.6605987500006,-1.78101744890213,0.264951959252357,0.521194490790367,1.87453097900135
12.6705857499983,-1.6476103001833,-0.0267866796255112,0.794665331616998,1.82943439804476
12.6805717499956,-1.76065802872181,-0.617746054530144,0.692727239727974,1.99032608148797
12.6905577500002,-2.00423081338406,-0.843747371435165,0.324053787812591,2.19860447500626
12.7005447499978,-2.3187911349535,-0.749481484293938,0.287543773278594,2.45381259357549
12.7105307500024,-2.35729621946812,-0.759297789931297,0.512389022558928,2.52901583833556
12.7205167499997,-2.00056577861309,-0.875784850716591,0.807860596999526,2.32849764515383
12.7305037499973,-1.50546448767185,-1.00511590540409,1.19384414613247,2.16839690836159
12.7404897500019,-1.16331934154034,-1.23623529016972,1.61674635708332,2.34423940036103
12.7504757499992,-1.06693442344666,-1.36311051428318,1.79295220077038,2.49220724104801
12.7604627499968,-0.969951919913292,-1.08891235291958,1.82344835400581,2.33484490684303
12.7704487500014,-0.61728763282299,-0.681449714899063,1.9077950245142,2.11780537140063
12.7804347499987,-0.0412790036201477,-0.41608143389225,1.98238912403584,2.02600452982348
12.7904217499963,0.555156288743019,-0.253879671692848,2.0236459082365,2.11371619536591
12.8004077500009,1.07416684448719,-0.00869539439678192,2.04528469920158,2.31021633629134
12.8103937499982,1.52965383410454,0.287674823999405,2.03767513275146,2.56412121460502
12.8203807499958,1.91856150269508,0.530785678625107,2.01085512399673,2.82951409361414
12.8303667500004,2.25693344056606,0.656491459608078,1.990899746418,3.08032650736427
12.8403527499977,2.43701423406601,0.717239352464676,1.8831718146801,3.16224710441322
12.8503397499953,2.57109907507896,0.851206079721451,1.62593408703804,3.158918153327
12.8603257499999,2.68665525913239,0.990597853660583,1.33857969045639,3.16088534698793
12.8703117499972,2.76706675350666,1.05037160038948,1.06835003435612,3.14663482361321
12.8802987500021,2.9055364215374,1.18548555135727,0.857646787762642,3.25316398325027
12.8902847499994,3.11236354887485,1.46989236652851,0.813914365544915,3.53692621127216
12.9002707499967,3.29023643374443,1.78871823191643,0.909036211967468,3.85376640934524
12.9102577500016,3.3712805968523,2.07470554947853,1.05382854737341,4.09639971035652
12.9202437499989,3.24667935490608,2.34024632334709,1.06608416520059,4.14176473677639
12.9302293750006,3.03443829059601,2.69008348166943,0.918271231278777,4.15783440410752
12.9402153749979,2.79792777299881,2.98946501612663,0.617240855097771,4.14080755152481
12.9502023749956,2.44419549196959,3.15767947018147,0.182622578144073,3.99729686731145
12.9601883750001,2.18245979368687,3.3998021453619,-0.220254673361778,4.04602242947377
12.9701743749974,2.07702338576317,3.75188638865948,-0.566274842396379,4.32566119981054
12.9801613750024,2.13846914380789,4.14437372267246,-0.71455672301352,4.71799482223119
12.9901473749997,2.303610008955,4.43071362733841,-0.6860187292099,5.04068090813798
13.000133374997,2.33560363411903,4.49628079533577,-0.524494513124228,5.09378835647033
13.0101203750019,2.06404139757156,4.46918421328068,-0.324534502029419,4.93347717802909
13.0201063749992,1.64593390345573,4.43635502099991,-0.221192566752434,4.73701070702639
13.0300923749965,1.26571636676788,4.34745453894138,-0.0969814071804285,4.52899594641073
13.0400793750014,0.929329558610916,4.17340807199478,-0.00200559496879578,4.27562771839532
13.0500653749987,0.581359416246414,3.86724552154541,0.010557586401701,3.91071325430567
13.060051374996,0.143700587153435,3.58286326467991,-0.0666081185638905,3.58636245708652
13.0700383750009,-0.399714492559433,3.31549815952778,-0.279937203526497,3.35121836938633
13.0800243749982,-0.956948297023773,3.07399002671242,-0.5619992852211,3.26818113391733
13.0900103749955,-1.38279575049877,2.79826749622822,-0.916131954342127,3.25295601350703
13.0999973750004,-1.60283407688141,2.5287149477005,-1.29720259979367,3.26285319155608
13.1099833749977,-1.59056544899941,2.29554845273495,-1.62605512440205,3.23163989547082
13.1199693750023,-1.2989788377285,2.05798485159874,-1.86118569910526,3.06376563673371
13.1299563749999,-0.896591582894325,1.7152041131258,-1.98170675396919,2.77001142144355
13.1399423749972,-0.608398695588112,1.21937601327896,-1.93811488419771,2.36924379051674
13.1499283750018,-0.265984577536583,0.567625476121903,-1.83268505439162,1.93692565299248
13.1599153749994,0.128013677000999,-0.431339158415794,-1.75101845517755,1.80790115920493
13.1699013749967,0.335924293398857,-1.65787274837494,-1.66951002314687,2.37668906213826
13.1798873750013,0.347385420799255,-2.86303476512432,-1.62944592475891,3.31251244806835
13.1898733749986,0.424492653608322,-4.28973784267902,-1.6069445233047,4.60046904922301
13.1998603749962,0.53923607468605,-5.96482888698578,-1.51084860384464,6.17678093338287
13.2098463750008,0.8698791629076,-7.38776109516621,-1.03680788733065,7.51070398514968
13.2198323749981,1.51898383498192,-8.56988859057427,-0.270768842473626,8.70767581572981
13.2298193749957,2.47954337239265,-9.66759866416454,0.581399688944221,9.99743091325151
13.2398053750003,3.88703776180744,-10.795798459053,1.36568328917027,11.5552333501547
13.2497913749976,5.52298871397972,-11.702374162674,1.99622071266174,13.0932754691722
13.2597783749952,6.96533016979694,-12.1917720794678,2.43094073116779,14.2500738121044
13.2697643749998,7.93404364943504,-12.5920443964005,2.53461595773697,15.0974470943029
13.2797503749971,8.34702781319618,-12.9181786966324,2.43469405889511,15.5717677003228
13.289737375002,8.2427655261755,-13.1293438732624,2.25252113163471,15.665143009572
13.2997233749993,7.44780615270138,-13.4023468637466,1.89808747708797,15.4497719729151
13.3097093749966,6.16694257378578,-13.653851981163,1.15561855852604,15.0264536363272
13.3196963750015,5.07405352950096,-13.5366574072838,0.118345854096115,14.4568709866137
13.3296823749988,4.11647665679455,-13.1656761324406,-0.582985490374267,13.8065303451749
13.3396683749961,3.61632103264332,-12.5879256176949,-0.885850832462311,13.1270095933968
13.349655375001,3.62808679997921,-11.8156394076347,-1.0652545183897,12.4059306635328
13.3596413749983,4.0808676981926,-10.5131627655029,-1.28240432024002,11.3500939795527
13.3696273749956,4.9631955832243,-8.78506729602814,-1.3464418566227,10.1795689234047
13.3796133750002,5.70799403250217,-7.20923566102982,-1.52612445473671,9.3211228155566
13.3896003749978,5.55335856735706,-5.85646185457706,-1.67995534300804,8.24379686711503
13.3995863750024,3.97916005969048,-4.08780717372894,-1.47755163431168,5.8929653912341
13.4095723749997,1.67458759903908,-1.96323715388775,-0.705058432817459,2.67500488652783
13.4195593749973,-0.598849022984505,0.129770180583,0.523632048815489,0.806009289428321
13.4295453750019,-2.43191370785236,2.21833889365196,2.05313634037971,3.87951035076813
13.4395313749992,-3.70987122058868,4.59647868275642,3.83098576784134,7.0403986185293
13.4495183749968,-4.98887889325619,7.09277198910713,6.31864741444588,10.7294749288641
13.4595043750014,-4.8425394576788,8.94727256655693,6.56761016249657,12.10939214106
13.4694903749987,-4.87421499431133,9.82531034946442,6.34616441130638,12.6715625717349
13.4794773749964,-5.37393149256706,10.306067250967,5.01866636395454,12.6602201379339
13.4894633750009,-5.77592756867409,10.6679865109921,3.25304112553597,12.5598388541297
13.4994493749982,-6.02190005064011,10.9654916739464,1.70378742456436,12.6256952069734
13.5094363749959,-6.35894291639328,10.6884611213207,0.561613442078233,12.449689386256
13.5194223750004,-6.73746943831444,9.8434764790535,-0.42647953748703,11.936054977328
13.5294083749977,-7.08826437056065,8.94277839660645,-1.33345051288605,11.4889019278644
13.5393953749954,-7.2296395200491,8.27251440525055,-1.90395632743835,11.1502121895382
13.5493813749999,-6.9898615783453,7.68177079260349,-2.06141599774361,10.5885411322938
13.5593673749972,-6.58693988800049,7.08141552686691,-1.70767699241638,9.82091562242095
13.5693543750022,-6.3578372079134,6.7734467715025,-0.921948106661439,9.33550552675549
13.5793403749994,-6.39571313202381,6.5412737184763,0.0629850375652313,9.14862697032334
13.5893263749967,-7.12458259642124,6.09997616708279,1.66530339002609,9.52589217832319
13.5993133750017,-7.29979441344738,6.16699870705605,2.03834873199463,9.77106632280493
13.609299374999,-7.21093544661999,6.12997706115246,2.58826182246208,9.81189625134666
13.6192853749963,-7.67620541274548,5.89984819471836,2.89991490840912,10.1065248594855
13.6292723750012,-7.71743822336197,5.88234338521957,2.7249147605896,10.0789868977752
13.6392583749985,-7.71540456175804,6.12150736927986,2.3697233068943,10.1299510647872
13.6492443749958,-7.51272603392601,6.54406868755817,1.83286704897881,10.1304140619987
13.6592303750003,-7.00993097662926,7.08207275390625,1.321145632267,10.0518810463707
13.669217374998,-6.38568340301514,7.65142081975937,0.939020733833313,10.0101425076349
13.6792033749953,-5.75313336789608,8.06970139145851,0.599889279194176,9.92867016490118
13.6891893749998,-5.44854254901409,8.43841803967953,0.180300100632012,10.0461944559666
13.6991763749975,-5.30354095637798,9.00741761147976,-0.27600147921592,10.4564475573736
13.7091623750021,-5.16349370956421,9.49122851371765,-0.778605880737305,10.8328811082664
13.7191483749994,-5.00729937672615,9.70163355231285,-1.28334923028946,10.992803367586
13.729135374997,-5.02216884613037,9.70214518368244,-1.67766674280167,11.0529799956481
13.7391213750016,-5.14387220799923,9.47121934175491,-1.85765456557274,10.9368321554668
13.7491073749989,-5.18497111737728,8.83736713171005,-1.85092968285084,10.4119606222615
13.7590943749965,-4.80176623821259,7.5963979357481,-1.66986538767815,9.14060561547438
13.7690803750011,-3.74270742952824,5.50875425219536,-1.38935574173927,6.80327433602601
13.7790663749984,-1.59338088333607,2.06045588493347,-1.40514907121658,2.959524455969
13.789053374996,1.22725572109222,-2.87856380045414,-2.03944333076477,3.73518610749712
13.7990393750006,3.4126344448328,-7.97698443174362,-3.56935912013054,9.38182706122845
13.8090253749979,4.45785932600498,-11.8900791406631,-5.4417720580101,13.8151863857504
