Time (s),Linear Acceleration x (m/s^2),Linear Acceleration y (m/s^2),Linear Acceleration z (m/s^2),Absolute acceleration (m/s^2)
0.007284333,0.602517566,-0.419955799,-0.031183201,0.735093656
0.017278333,0.130605309,-0.681206471,-0.022548622,0.693980146
0.027272333,-0.025379109,-0.695241542,-0.09002725,0.701505386
0.037265333,-0.25633404,-0.633634694,-0.098790463,0.690622633
0.047259333,-0.386445991,-0.339174761,0.046290086,0.516258457
0.057253333,-0.344968474,0.026344045,0.137693761,0.372366525
0.067247333,-0.299843172,0.31648464,0.055955515,0.439544622
0.077241333,-0.149788416,0.506961198,0.194970728,0.56343572
0.087234333,-0.043329915,0.583933945,0.424686196,0.723335814
0.097228333,0.05519143,0.540933521,0.50088532,0.739284297
0.107222333,0.242543675,0.494243504,0.495065623,0.740401274
0.117216333,0.401964501,0.425746297,0.414600334,0.71744603
0.127209333,0.519724355,0.286762074,0.301473686,0.665756919
0.137203333,0.500949384,0.115151557,0.047323252,0.516187617
0.147197333,0.167526237,-0.229365805,-0.186561866,0.339822074
0.157191333,-1.075524422,-0.750684841,-0.224570503,1.330681188
0.167184333,-1.099727802,-0.708972559,0.259943234,1.334021668
0.177178333,-0.06102929,-0.682299315,0.129709954,0.697195527
0.187172333,1.139365638,-0.872222727,-0.325254879,1.471297821
0.197166333,2.164464695,-1.026060632,-0.885633316,2.55383128
0.207159333,1.452226612,-1.132731387,-1.247191218,2.22430404
0.217153333,1.47454675,-0.806353258,-0.564370916,1.772853131
0.227147333,1.599396353,-0.457645782,0.015651845,1.663656616
0.237141333,1.749567322,-0.232087099,0.243016166,1.781546265
0.247134333,1.982181256,-0.03721285,0.244753959,1.997581494
0.257128333,2.160132201,0.064117059,0.104897916,2.163627901
0.267122333,2.268398661,0.05487378,-0.054905318,2.269726462
0.277116333,2.373656875,0.014570092,-0.160412441,2.379115676
0.287109333,2.384868473,-0.023853132,-0.250263169,2.398082204
0.297103333,2.344470937,-0.09901675,-0.384530443,2.37785869
0.307097333,2.351001399,-0.163741334,-0.546891286,2.419319922
0.317091333,2.463406811,-0.388300728,-0.637689153,2.574062553
0.327084333,2.561598519,-0.45423744,-0.745884862,2.706374485
0.337075083,2.606528524,-0.201927161,-0.860894916,2.752436299
0.347069083,2.690643645,-0.173721946,-0.956913214,2.861018252
0.357063083,2.770142389,-0.272903003,-0.925389705,2.93334468
0.367056083,2.812625334,-0.43247001,-0.763996028,2.94645236
0.377050083,2.670290657,-0.634992417,-0.660338928,2.823068377
0.387044083,2.423094937,-0.811253809,-0.585128531,2.621430376
0.397038083,2.175248861,-0.91374439,-0.482595303,2.4082223
0.407031083,1.812207228,-0.984888632,-0.653302388,2.163539846
0.417025083,1.473606518,-0.937584658,-0.967096725,1.996461178
0.427019083,1.095138322,-0.841279846,-1.048716838,1.734037696
0.437013083,0.659019211,-0.609697947,-0.848504666,1.235312946
0.447006083,0.215670456,-0.173744166,-0.58874445,0.650631084
0.457000083,-0.195506918,0.47226499,-0.443172169,0.676504802
0.466994083,-0.486156513,1.051396617,-0.288582312,1.193759922
0.476988083,-0.696716795,1.489688115,-0.16963065,1.653287492
0.486981083,-0.988301652,1.73116058,0.142886043,1.998517833
0.496975083,-1.416870546,1.768890908,0.705528549,2.373661249
0.506969083,-1.685414304,1.685980314,0.966005049,2.572220198
0.516963083,-1.714062883,1.444919493,0.788081805,2.376315812
0.526957083,-1.57888929,0.939402557,0.493439476,1.902327803
0.536950083,-1.450463677,0.255550221,0.370506481,1.51869215
0.546944083,-1.453166114,-0.351266218,0.239884434,1.514141424
0.556938083,-1.192788724,-0.432530236,0.089685763,1.271955534
0.566932083,-0.870084693,-0.390852453,0.05963451,0.955703556
0.576925083,-0.686316791,-0.399593455,-0.019709868,0.794414341
0.586919083,-0.584076617,-0.570930907,0.029718474,0.817307031
0.596913083,-0.502132422,-0.812951256,0.188682048,0.973975168
0.606907083,-0.488131995,-1.098706439,0.141633085,1.210573672
0.616900083,-0.469380705,-1.380800681,0.101926397,1.461956824
0.626894083,-0.534545292,-1.834525319,0.002604861,1.91081883
0.636888083,-0.688086012,-2.230836148,-0.185281892,2.341884211
0.646882083,-0.855537112,-2.656705236,-0.809391471,2.90605248
0.656875083,-0.568100709,-2.472184067,-0.923302907,2.699429705
0.666869083,-0.711046713,-2.146261436,-1.449897813,2.685931728
0.676863083,-0.563221353,-1.850601069,-2.940042595,3.519345546
0.686857083,-0.38801933,-1.567770079,-2.755688072,3.19410062
0.696850083,-0.004320215,-0.562932501,-3.156964356,3.20676404
0.706844083,0.488693766,0.883584452,-3.772384973,3.905180081
0.716838083,0.758861734,2.226574697,-3.391979156,4.127835826
0.726832083,0.530986823,3.383386087,-2.831952136,4.44400735
0.736825083,0.021081405,4.032751545,-2.282385786,4.633876814
0.746819083,-0.624363495,3.932376487,-2.264688018,4.580636029
0.756813083,-0.897085088,3.957113718,-2.415931513,4.722312538
0.766807083,-0.918984226,3.842328197,-2.342424996,4.592926392
0.776800083,-0.990166037,3.481383083,-2.211349717,4.241523844
0.786794083,-1.183065462,3.182167025,-2.156309291,4.021877748
0.796788083,-1.433839312,2.985852606,-2.151642044,3.949781569
0.806782083,-1.695604831,2.894375841,-2.158477439,3.988923678
0.816775083,-1.912164356,2.794459205,-2.041042544,3.953634965
0.826769083,-2.091772987,2.492456363,-1.735723162,3.687897484
0.836763083,-2.097389238,1.946722863,-1.435144118,3.201313818
0.846757083,-1.792415426,1.280990463,-1.068333077,2.448474054
0.856751083,-1.324944714,0.554745229,-0.829766679,1.658834985
0.866744083,-0.715477733,-0.138301853,-0.439141062,0.850811766
0.876738083,0.021250536,-0.848101793,-0.045704176,0.849598204
0.886732083,0.605756777,-1.69097559,-0.008541686,1.796221779
0.896726083,1.269463847,-2.324536609,-0.060184221,2.649269908
0.906719083,1.710261754,-3.050690627,-0.091949842,3.498594481
0.916713083,1.886575333,-3.896444178,-0.277978459,4.338054373
0.926707083,2.057918193,-4.74788707,-0.351776716,5.186637232
0.936701083,1.914734792,-5.571019498,-0.437176507,5.907079724
0.946694083,1.502210512,-6.398177149,-0.580387682,6.597738788
0.956688083,1.018335437,-7.143848587,-0.852560368,7.266253428
0.966682083,0.455408052,-7.942612159,-1.294795155,8.060333672
0.976676083,-0.125856347,-8.671036651,-1.638261187,8.825339434
0.986669083,-0.80636678,-8.998017628,-2.156450794,9.287886123
0.996663083,-1.557133994,-9.075843483,-2.483373299,9.537439077
1.006657083,-2.540587134,-9.126978554,-2.714402052,9.855166107
1.016651083,-3.142767316,-8.508541358,-2.837880043,9.503989982
1.026644083,-3.534631629,-7.140509242,-3.065298725,8.536776281
1.036638083,-3.836292993,-5.223037076,-3.137432317,7.200051511
1.046632083,-3.849425547,-2.91127371,-2.960086266,5.661775548
1.056626083,-3.990588443,-0.156551598,-3.056458905,5.029040222
1.066619083,-4.101279159,4.756477799,-4.454453323,7.699787412
1.076613083,-4.234643915,12.46281742,-4.485357027,13.90584247
1.086607083,-4.838031839,19.83548627,2.165798153,20.53153061
1.096601083,-3.157463708,22.8466199,6.38319015,23.93079051
1.106594083,-1.610853679,15.75857597,5.373191235,16.72718596
1.116588083,-1.605456553,7.91867015,2.450100303,8.443092987
1.126582083,-0.852647857,4.240176258,-1.214584805,4.492362331
1.136576083,0.732129141,3.867178279,-1.852914813,4.350215422
1.146569083,2.738861247,4.517645352,-1.313582697,5.443893823
1.156563083,3.733332004,5.734999398,-2.509867033,7.288855772
1.166557083,3.711785599,6.826551769,-4.009177326,8.743721417
1.176551083,4.486282057,7.736237606,-3.802299328,9.717694128
1.186545083,5.734005371,8.688695242,-2.834823704,10.7892756
1.196538083,5.628619249,7.302434431,-1.240999017,9.303063035
1.206532083,4.591744485,5.275760835,-0.326881574,7.001758448
1.216526083,3.481218484,3.855713643,-0.361086617,5.207282724
1.226520083,2.274733827,2.424187782,-0.227468383,3.332092773
1.236513083,1.401088326,1.15379949,-0.026212995,1.815210423
1.246507083,0.988656432,0.160835268,0.098106887,1.006446464
1.256501083,0.76230399,-0.799015002,0.071127907,1.106612636
1.266495083,0.386549925,-2.048774902,-0.047496924,2.085462875
1.276488083,0.135769278,-3.138149185,-0.343478311,3.15980869
1.286482083,0.054339929,-4.23183462,-0.540888498,4.266607253
1.296476083,0.109458269,-5.197553741,-0.679679178,5.242948577
1.306470083,0.218114446,-6.034168094,-1.069641684,6.132119685
1.316463083,0.148845698,-7.420517782,-1.389115421,7.550886097
1.326457083,0.313052909,-8.578871668,-1.551736429,8.723699167
1.336451208,0.253436745,-9.525178033,-1.491063526,9.644507099
1.346445208,-0.260362626,-10.29936283,-1.674247876,10.43780482
1.356438208,-1.306539434,-10.82761316,-1.953315014,11.07969727
1.366432208,-2.440054786,-11.08302773,-2.321607154,11.58348957
1.376426208,-3.262286158,-10.83157289,-2.374975276,11.55880573
1.386420208,-4.016234915,-10.45833459,-1.755637025,11.33971634
1.396413208,-4.776977552,-10.75907327,-1.340287077,11.84793406
1.406407208,-5.068522063,-10.82431416,-1.775640349,12.08340149
1.416401208,-4.854633839,-10.24317577,-1.692081299,11.46094493
1.426395208,-4.803573613,-9.663284004,-1.815800196,10.9430575
1.436389208,-3.991086625,-7.875339358,-2.331491872,9.131571432
1.446382208,-3.068694788,-5.647525637,-2.291733729,6.823743621
1.456376208,-2.65302763,-3.571160063,-1.686240515,4.757640893
1.466370208,-2.863527101,-0.193280298,-1.396281184,3.191668196
1.476364208,-3.65407972,5.350305818,-0.940804646,6.546998116
1.486357208,-3.493084238,13.38036133,-0.736748003,13.84841162
1.496351208,-1.268615709,20.91054598,-0.567562326,20.95668023
1.506345208,1.796277805,20.41306254,0.696974072,20.50379255
1.516339208,2.121701961,11.52432645,4.280635482,12.47539816
1.526332208,2.439808911,5.607771002,4.332807848,7.49486404
1.536326208,3.342173742,3.735045238,2.140483217,5.449986849
1.546320208,2.863423897,3.894931503,-0.478462454,4.857840482
1.556314208,1.811312166,5.322120484,-1.574090334,5.838114301
1.566307208,1.981552241,7.593269675,-1.88889273,8.071691855
1.576301208,1.875868642,9.993230689,-2.184310437,10.39974783
1.586295208,0.639735532,11.70753842,-1.519588437,11.82306502
1.596289208,-0.813815767,12.03374406,0.409744806,12.06818889
1.606282208,-2.491107996,10.79268774,1.4808787,11.17500467
1.616276208,-3.353326721,8.605342013,1.004362199,9.290072911
1.626270208,-3.406191398,6.248538714,0.033331432,7.116704777
1.636264208,-2.987136655,4.567659511,-0.78611144,5.514024846
1.646257208,-2.592973216,3.397507113,-1.542061626,4.543623966
1.656251208,-2.274401997,2.286671795,-1.739899828,3.664563242
1.666245208,-1.770716701,1.3384645,-1.523785568,2.692368347
1.676239208,-1.488644533,0.143974822,-1.138954652,1.879896006
1.686233208,-1.303387346,-1.072692761,-0.676088988,1.818401675
1.696226208,-1.084817402,-2.122190788,-0.333958533,2.406667995
1.706220208,-0.756100094,-3.014253117,-0.119756897,3.109943878
1.716214208,-0.428531179,-3.842757382,0.086866163,3.867553361
1.726208208,-0.009256581,-4.484223837,0.319160838,4.49557702
1.736201208,0.393538956,-5.084566823,0.541124141,5.128402093
1.746195208,0.732970117,-5.810534315,0.817128507,5.913311526
1.756189208,0.878790904,-6.696760538,0.805437584,6.802029466
1.766183208,0.945607622,-7.664571208,0.602915761,7.746181833
1.776176208,1.127856417,-8.53984852,0.047673592,8.614136383
1.786170208,1.339510567,-9.181017351,-0.510277154,9.292241438
1.796164208,1.499291582,-9.420673671,-0.79749765,9.572511173
1.806158208,1.538561775,-9.432972119,-0.774873091,9.588981367
1.816151208,1.700437555,-9.274821308,-0.665412045,9.452860486
1.826145208,1.843177883,-9.039914097,-0.757607506,9.256960664
1.836139208,2.131585217,-8.574288036,-0.409346099,8.844751838
1.846133208,2.179016661,-8.021692827,0.181996853,8.314372633
1.856126208,1.487744062,-7.526075227,0.430593712,7.683788237
1.866120208,0.61065499,-6.950303995,0.445536271,6.991289417
1.876114208,-0.116978665,-6.112641821,0.350834182,6.123818961
1.886108208,-0.572952143,-5.086264855,0.075442019,5.118989727
1.896101208,-0.996546519,-4.075638533,-0.005578828,4.19570799
1.906095208,-1.503980903,-2.935491123,0.08242184,3.299372675
1.916089208,-1.772153801,-1.244934778,-0.209867168,2.175875898
1.926083208,-1.949095224,1.036841143,-0.556891231,2.27687057
1.936076208,-2.073477196,4.149540907,-1.105934109,4.76876165
1.946070208,-2.479971973,7.815414169,-2.164524629,8.48033764
1.956064208,-3.117557631,11.05587676,-2.914189131,11.8509103
1.966058208,-3.125632051,13.38473505,-2.372608323,13.94811738
1.976052208,-2.576965294,13.47342562,-0.008771993,13.71765377
1.986045208,-1.774113203,11.03314396,1.306176614,11.25094843
1.996039208,-0.432181011,8.725492355,1.351953442,8.8401796
2.006033208,0.722047664,7.592981992,1.745140103,7.824336543
2.016027208,1.332290864,7.468742693,2.08785126,7.868687263
2.026020208,1.533863683,7.938261831,1.578142455,8.237673962
2.036014208,1.441599298,8.324732965,0.524087035,8.464871806
2.046008208,1.482795125,8.398385662,-0.324580695,8.534454625
2.056002208,1.613855055,8.406952418,-0.916260301,8.609350152
2.065995208,1.488843339,8.045789788,-1.10212516,8.256274442
2.075989208,1.148035305,7.081443594,-0.813106207,7.219831725
2.085983208,0.866712457,5.872566256,-0.425145349,5.951384165
2.095977208,0.634872111,4.589022313,-0.146099773,4.635033283
2.105970208,0.440583606,3.151777875,-0.047665333,3.18278018
2.115964208,0.306817731,1.63655497,-0.045331709,1.665684319
2.125958208,0.288606724,0.221265072,0.0316626,0.365040537
2.135952208,0.206491936,-1.041280934,0.145555836,1.071490273
2.145945208,0.227309631,-2.06931851,0.289913723,2.10185602
2.155939208,0.23080729,-3.052910814,0.328361066,3.079181293
2.165933208,0.139804441,-4.116646811,0.275586729,4.128228953
2.175927208,0.13077941,-5.12505236,0.179743994,5.129870646
2.185921208,0.18419431,-6.047988573,0.003079728,6.050793568
2.195914208,0.250376897,-6.964637275,-0.069953749,6.969487391
2.205908208,0.341613927,-7.820591294,0.026036482,7.828092115
2.215902208,0.397268602,-8.544202357,0.196693318,8.555694275
2.225896208,0.435952319,-9.119445586,0.274834338,9.133995628
2.235889208,0.608065624,-9.582914609,0.359190876,9.608902866
2.245883208,0.699599618,-10.04179649,0.338599541,10.07183032
2.255877208,0.672296703,-10.50003226,0.166587101,10.52285187
2.265871208,0.538567007,-10.92983301,-0.109726656,10.943644
2.275864208,0.306220146,-11.05173109,-0.605976194,11.07256691
2.285858208,0.254646973,-10.85885951,-0.913612316,10.90020011
2.295852208,0.205321835,-10.39761945,-1.081287657,10.45570802
2.305846208,-0.031390558,-9.697755094,-1.191239212,9.770695476
2.315839208,-0.513448538,-8.989647338,-1.462207956,9.122249765
2.325833208,-1.027443498,-8.069415463,-1.886385444,8.35042251
2.335826333,-1.443521862,-6.975864514,-2.357949353,7.503756808
2.345820333,-1.628937217,-5.646383675,-2.960424235,6.580212513
2.355813333,-1.88395768,-4.253006219,-3.802794002,6.008211103
2.365807333,-2.357433629,-2.503536837,-4.928782965,6.009832903
2.375801333,-2.312040232,0.215530708,-5.6592686,6.117132057
2.385795333,-1.384256677,4.011638419,-5.346239079,6.825809963
2.395788333,0.103342081,8.878692913,-3.187358183,9.434040471
2.405782333,1.414406237,14.15527996,2.586715819,14.45903159
2.415776333,2.118578086,19.96878875,9.137598267,22.06210777
2.425770333,2.61644891,23.01036299,8.911612737,24.81409783
2.435764333,2.556988282,19.49598523,5.906918063,20.53103286
2.445757333,1.5739003,14.75588724,3.506930737,15.24834199
2.455751333,0.946798554,10.22238775,0.596976233,10.28348284
2.465745333,1.428264576,7.150141945,-0.758804723,7.330774458
2.475739333,2.726887904,6.428558112,-1.321590021,7.106959773
2.485732333,3.936482402,6.058200735,-1.08731884,7.306158505
2.495726333,4.583717719,6.028921972,-1.431214789,7.707577054
2.505720333,4.854512801,6.239835718,-2.145859147,8.191859118
2.515714333,4.834790727,6.408120924,-1.98660789,8.269572302
2.525707333,4.716007465,5.961670221,-1.037159232,7.671892694
2.535701333,4.693650636,4.613223939,-0.63929129,6.612177006
2.545695333,4.540226714,3.505832046,-0.257179146,5.742008191
2.555689333,3.865020948,2.18959632,0.32521161,4.454041038
2.565682333,3.113545856,0.719567129,0.726784347,3.277218354
2.575676333,2.405336066,-0.605296748,1.134741075,2.727574573
2.585670333,1.575127046,-1.846951822,1.385310638,2.79487778
2.595664333,0.975140593,-2.6641733,1.413880134,3.169822642
2.605658333,0.266921301,-3.333033375,1.61922967,3.715139725
2.615651333,-0.554255233,-3.986543339,1.782345936,4.401872748
2.625645333,-1.374870581,-4.662059884,1.576398815,5.109804761
2.635639333,-2.235935358,-5.450867402,1.115606647,5.996327255
2.645633333,-3.172381709,-6.627586808,0.461504359,7.36219389
2.655626333,-3.78499157,-7.678868819,-0.253323601,8.564774391
2.665620333,-4.0116621,-8.594472039,-0.898485496,9.527101271
2.675614333,-4.074471429,-9.672278191,-1.20792658,10.56472288
2.685608333,-4.012528365,-10.9436839,-1.442340871,11.74499674
2.695601333,-3.817416719,-12.16116541,-1.538428166,12.8387451
2.705595333,-3.472105306,-13.07928352,-1.291914232,13.59383004
2.715589333,-3.438904815,-13.86042242,-1.347009037,14.34405135
2.725583333,-3.215940542,-14.04440389,-2.071420584,14.55604127
2.735576333,-3.005094624,-13.45736449,-2.097948232,13.94749581
2.745570333,-2.872508716,-12.05545477,-1.350451877,12.46631527
2.755564333,-2.603261977,-9.962453284,-0.90179502,10.33637667
2.765558333,-1.792500211,-7.928803375,-0.366343263,8.137148601
2.775551333,-0.930692545,-5.436558096,0.130092344,5.517180128
2.785545333,0.213018452,-1.446865447,0.576034942,1.57181829
2.795539333,0.96216489,4.710535641,0.992843184,4.909240765
2.805533333,1.969697158,12.7191769,0.93172107,12.90446713
2.815526333,3.438330326,20.69765354,0.727024083,20.99389296
2.825520333,2.666945465,21.85959352,2.828753124,22.20261857
2.835514333,-1.614446355,14.28510803,4.669820309,15.11548776
2.845508333,-4.480057696,5.485085308,1.841587586,7.317685606
2.855502333,-2.730583929,1.377021625,-1.718826463,3.508082319
2.865495333,-0.499881682,1.129465717,-4.884735889,5.038473897
2.875489333,0.834661383,2.736219767,-6.307267563,6.925690027
2.885483333,2.20235933,4.892885739,-6.393226311,8.346499873
2.895477333,3.065265396,6.974757636,-5.186361001,9.216367856
2.905470333,3.569600025,8.995858251,-3.220503709,10.19995854
2.915464333,3.55256504,11.45220338,-1.390030364,12.07086845
2.925458333,2.565140762,13.33574123,0.965344899,13.61447142
2.935452333,1.680062932,13.11172387,3.316513821,13.62861616
2.945445333,1.247311963,11.71396802,4.29867882,12.53999496
2.955439333,1.163740926,10.05692441,3.293257105,10.6461995
2.965433333,1.079269417,8.147013862,1.941979601,8.444521426
2.975427333,0.631054902,6.145747002,1.161678028,6.286329003
2.985421333,0.165299763,4.34321063,0.474353031,4.372163467
2.995414333,-0.215757141,2.711251572,-0.061471792,2.720517416
3.005408333,-0.647423451,1.207870447,-0.403922734,1.428727307
3.015402333,-1.033911688,-0.246640234,-0.38895737,1.131853621
3.025396333,-1.225853266,-1.467847595,-0.142372684,1.917697258
3.035389333,-1.349609586,-2.491768731,-0.002028984,2.833789258
3.045383333,-1.44116792,-3.384657857,0.130389985,3.68101553
3.055377333,-1.512815461,-4.326088813,0.278487715,4.591427931
3.065371333,-1.449997069,-5.328168259,0.381692826,5.535120406
3.075364333,-1.25856493,-6.317330037,0.381196945,6.45274791
3.085358333,-1.18868354,-7.42239123,0.340990284,7.524701622
3.095352333,-1.064916696,-8.446755584,0.248886076,8.51725729
3.105346333,-0.878271087,-9.227357705,0.06247516,9.269271463
3.115339333,-0.658162009,-10.02959569,0.175904127,10.05270656
3.125333333,-0.46311439,-10.64389715,0.239081063,10.65664963
3.135327333,-0.310703206,-11.2035061,0.408894621,11.21526995
3.145321333,-0.229083823,-11.71642853,0.568881421,11.7324679
3.155314333,-0.231761701,-11.76647485,0.65444318,11.78693937
3.165308333,-0.319240579,-11.50120772,0.727032269,11.52858489
3.175302333,-0.348375208,-11.08965847,0.754264507,11.12073762
3.185296333,-0.465335747,-10.53473314,0.5970703,10.56189532
3.195290333,-0.763756292,-10.00447839,0.244964422,10.03657906
3.205283333,-1.449848404,-9.568489528,-0.2697917,9.681468887
3.215277333,-2.011456949,-8.972627848,-0.725002116,9.223862402
3.225271333,-2.316275663,-7.867204127,-1.376049818,8.315740907
3.235265333,-2.466906955,-6.196890843,-2.583396939,7.152693604
3.245258333,-2.542661142,-4.125757942,-4.88433594,6.88067888
3.255252333,-2.654348808,-1.045180442,-8.533093232,8.99731348
3.265246333,-2.737266419,3.799307892,-13.36944809,14.1657866
3.275240333,-0.803848165,13.12735465,-14.55460854,19.61658078
3.285233333,3.119625791,26.43768037,1.188423119,26.64761449
3.295227333,7.096017779,33.25640623,15.40304537,37.33089646
3.305221333,6.792511618,21.70297702,9.674510658,24.71342919
3.315215333,3.594021799,11.5897603,5.381001946,13.27383586
3.325209333,2.119170993,7.346233585,0.242522625,7.649630763
3.335202708,2.801217417,5.674318163,-2.334561514,6.744989481
3.345196708,3.932301058,5.919885433,-3.80771268,8.062673937
3.355190708,4.663769025,6.31360536,-3.294470987,8.51269013
3.365184708,5.144385594,6.638588929,-1.573505613,8.544675887
3.375177708,5.427523563,7.097017068,-1.243878186,9.020692669
3.385171708,5.471663024,6.990658554,-0.663529168,8.902172444
3.395165708,4.711648951,5.997703688,-0.207256861,7.629878162
3.405159708,3.749134689,4.589207085,0.545277381,5.950979752
3.415152708,3.095012229,3.087493002,1.149210595,4.520221092
3.425146708,2.238047811,1.350611506,1.259694904,2.901696176
3.435140708,1.557207084,-0.58627517,1.075732144,1.981366226
3.445134708,1.186481186,-2.078388126,0.982570796,2.587060142
3.455127708,0.793143228,-3.216740441,1.074298407,3.482902857
3.465121708,0.28468295,-4.275101677,1.042108315,4.409481656
3.475115708,-0.312026869,-5.534789565,0.64342761,5.580793437
3.485109708,-0.762612284,-6.645396842,0.065274807,6.689330122
3.495103708,-1.143729415,-7.371729784,-0.467187232,7.474542186
3.505096708,-1.278227508,-7.998960022,-0.635171342,8.125310433
3.515090708,-1.597530068,-8.702953677,-0.610728848,8.869413439
3.525084708,-1.683499487,-9.049460846,-0.874030101,9.246125715
3.535078708,-1.44918606,-9.422138398,-1.010445058,9.586335663
3.545071708,-1.437656228,-9.651390182,-1.290901494,9.842896654
3.555065708,-1.67494618,-9.798350008,-1.539368983,10.05896438
3.565059708,-2.282044308,-9.837009459,-1.697288244,10.23988617
3.575053708,-2.912998638,-9.877189186,-1.427210616,10.39621842
3.585046708,-3.471205419,-10.14728845,-1.315063359,10.80491192
3.595040708,-3.415098462,-10.18589878,-1.201865357,10.81017631
3.605034708,-3.385900683,-10.18231327,-1.020722709,10.77894716
3.615028708,-3.45416137,-9.739424107,-0.751702768,10.36111335
3.625021708,-3.358365267,-8.533992534,-0.41139606,9.180244689
3.635015708,-3.486288312,-6.587409419,-0.008715896,7.453069503
3.645009708,-3.377126935,-4.150733739,0.67234677,5.393109223
3.655003708,-2.60652063,-0.63173201,1.424785776,3.036947421
3.664997708,-2.508578891,3.732914513,1.484775285,4.736261865
3.674990708,-1.521714046,9.700844178,1.104688141,9.881413224
3.684984708,1.01637852,16.73694144,-2.628081361,16.97247907
3.694978708,4.746695992,21.64138479,-5.157300339,22.74815169
3.704972708,4.574931985,17.42913249,1.828490408,18.11209649
3.714965708,1.648698906,9.313532799,4.344611623,10.40844616
3.724959708,1.140431439,6.03315711,1.256740891,6.267293375
3.734953708,0.415154943,6.070514386,-0.30815879,6.092492132
3.744947708,-0.027917385,6.911951523,-0.793816828,6.957441943
3.754940708,0.464230039,8.126097202,-1.533446338,8.282537228
3.764934708,1.156960933,9.289289074,-2.202533285,9.616683574
3.774928708,1.490916177,10.08807253,-1.808677118,10.35680217
3.784922708,0.861926073,9.816810837,-0.551947373,9.870022161
3.794915708,-0.037487669,8.486365793,0.208813463,8.489017184
3.804909708,-0.446672751,6.934103115,0.377528439,6.958723322
3.814903708,-0.723191526,5.603187954,0.195115118,5.6530338
3.824897708,-1.111788269,4.320547991,-0.24843712,4.468213189
3.834891708,-1.429678141,3.031763774,-0.738003985,3.432232663
3.844884708,-1.602254033,1.772865846,-0.980558769,2.582976344
3.854878708,-1.57611464,0.465852349,-0.952762933,1.89971392
3.864872708,-1.523712771,-0.987331599,-0.800710695,1.984354281
3.874866708,-1.395894537,-2.4081056,-0.632151913,2.85431431
3.884859708,-1.216507077,-3.671436303,-0.647759812,3.921597476
3.894853708,-1.105716958,-4.762720286,-0.705307524,4.93999729
3.904847708,-1.021664549,-5.58667074,-0.744323728,5.727888461
3.914841708,-0.962732655,-6.364590157,-0.73756252,6.479109546
3.924834708,-0.935652153,-7.128592032,-0.718821024,7.225577692
3.934828708,-0.783736666,-7.659214574,-0.780579974,7.73867664
3.944822708,-0.531781898,-8.022694455,-0.791270438,8.07914149
3.954816708,-0.234162422,-8.434876966,-0.782631177,8.474343221
3.964810708,0.365718488,-8.994315755,-0.527311263,9.017179331
3.974803708,0.98714902,-9.280210687,-0.374089143,9.340059757
3.984797708,1.352830524,-9.29843295,-0.322699646,9.401869006
3.994791708,1.415821702,-9.224009589,-0.350069878,9.338600158
4.004785708,1.348543638,-8.951035835,-0.289147738,9.056667095
4.014778708,1.280128145,-8.56838761,-0.290833417,8.668366535
4.024772708,1.278398978,-8.321578977,0.06915385,8.41948709
4.034766708,1.283518653,-8.046599042,0.808209237,8.188307423
4.044760708,1.01981332,-7.671192595,1.263713695,7.841185327
4.054753708,0.696261735,-6.984325435,1.183822603,7.118076857
4.064747708,0.23964828,-5.952615808,0.334530281,5.966823004
4.074741708,-0.400607509,-4.69437803,-0.888530027,4.794492368
4.084735708,-0.8805879,-2.984598963,-1.620159377,3.508301929
4.094729708,-1.272482472,-0.590826058,-2.329127258,2.719029396
4.104722708,-1.656155567,2.813590125,-3.806564287,5.014885076
4.114716708,-0.995527056,8.244402162,-4.84088528,9.612253192
4.124710708,0.419627624,15.31489392,-2.535854398,15.5290895
4.134704708,1.143103471,20.31795874,1.37190765,20.39628063
4.144697708,1.342287264,18.13987676,3.339324979,18.49345709
4.154691708,1.319230231,11.77137482,1.906297553,11.99748323
4.164685708,2.23166499,8.335443894,0.299328325,8.634208185
4.174679708,3.296844372,7.70582156,-0.353097018,8.38889422
4.184672708,3.909065977,7.719302316,-1.156657609,8.729620947
4.194666708,4.187036178,8.059038409,-0.931446251,9.129455852
4.204660708,3.755912781,7.908614109,-0.004059174,8.755174151
4.214654708,3.769456687,7.754776204,0.739146531,8.653998803
4.224647708,3.635697828,7.053242472,1.387140816,8.055475636
4.234641708,3.202309221,6.033388075,1.321140954,6.957152394
4.244635708,2.565223793,4.932317022,1.016041428,5.651589555
4.254629708,1.805721643,3.539028443,0.332911223,3.987001737
4.264623708,1.336859878,1.998584157,-0.284657661,2.421273002
4.274616708,1.143360017,0.385652524,-0.479918411,1.29858449
4.284610708,1.078593041,-1.069053454,-0.46024253,1.586840074
4.294604708,1.106373308,-2.389721369,-0.360000204,2.657899597
4.304598708,1.129124386,-3.701837146,-0.258860951,3.878856678
4.314591708,1.077583665,-5.022147796,-0.044769791,5.136648652
4.324585708,0.825858692,-6.264519154,0.120128707,6.319863426
4.334579708,0.43236169,-7.298443122,0.189358059,7.313690252
4.344573917,0.022073678,-8.05674747,0.103285875,8.057439731
4.354566917,-0.295881391,-8.503808037,-0.217892983,8.511743316
4.364560917,-0.630624035,-8.720983567,-0.643058066,8.767369316
4.374554917,-1.046202901,-8.703096349,-0.906008524,8.812450171
4.384548917,-1.383602374,-8.449802569,-1.130263277,8.636608944
4.394542917,-1.393341642,-8.065494905,-1.434138397,8.309654742
4.404535917,-1.388588002,-7.615522424,-1.600365967,7.904778913
4.414529917,-1.619962326,-7.280982167,-1.556524129,7.619694653
4.424523917,-1.880266041,-6.994625305,-1.34756803,7.367233072
4.434517917,-2.004681926,-6.693973171,-1.099587615,7.07369206
4.444510917,-1.770453431,-6.218763523,-0.90419289,6.528789312
4.454504917,-1.407685886,-5.883265491,-0.760575991,6.096955653
4.464498917,-1.364443826,-5.785820473,-0.69802606,5.985370989
4.474492917,-1.574957915,-5.494459564,-0.738780568,5.763278152
4.484485917,-1.586311307,-4.844042192,-0.60779117,5.133277552
4.494479917,-1.570284966,-3.631213306,-0.271437691,3.965499133
4.504473917,-1.632403154,-1.163687131,0.293016255,2.026022291
4.514467917,-1.828718449,2.68041628,1.431748055,3.546652661
4.524461917,-1.994867959,7.538761346,3.436212173,8.52173544
4.534454917,-1.299765288,12.79372656,5.450209005,13.96687536
4.544448917,-0.728167506,17.23819752,3.000237342,17.51248428
4.554442917,-0.594006798,18.45518786,-0.702293285,18.47809566
4.564436917,-1.387817485,14.3485164,-1.023826411,14.45178815
4.574429917,-2.002008579,8.410529745,-1.130627559,8.719138009
4.584423917,-1.471336921,4.790161854,-2.83723685,5.758506392
4.594417917,-1.079597154,2.851865999,-3.619273292,4.732632338
4.604411917,-0.718981823,2.102461113,-3.260074157,3.945296072
4.614404917,0.052990684,2.090298904,-2.205189675,3.03891741
4.624398917,0.557759469,2.612506133,-1.43516166,3.032486259
4.634392917,0.823797841,3.393139828,-0.850178139,3.593722811
4.644386917,0.812477632,4.165556431,-0.299038888,4.254574542
4.654380917,0.421263236,4.837324911,0.14315972,4.857743274
4.664373917,-0.233683974,5.287844691,0.14389413,5.294961302
4.674367917,-0.743549484,5.336025163,-0.045752708,5.387775393
4.684361917,-1.107228464,4.806520609,-0.165214248,4.93516879
4.694355917,-1.330170079,3.787719296,-0.178693286,4.018470006
4.704348917,-1.327622885,2.468351802,-0.338719847,2.823131998
4.714342917,-1.231298778,0.911828257,-0.593610502,1.643137511
4.724336917,-0.970168998,-0.584865407,-0.617510996,1.290199697
4.734330917,-0.740215986,-2.037430719,-0.498482151,2.224303958
4.744323917,-0.452837909,-3.409837137,-0.610664492,3.49356016
4.754317917,0.001154533,-4.64521464,-0.624183254,4.686963316
4.764311917,0.479377251,-5.871085741,-0.254708807,5.896128128
4.774305917,0.810575825,-6.960442482,-0.160152898,7.009311069
4.784299917,1.252438509,-7.835912753,-0.024605668,7.935410281
4.794292917,1.721364009,-8.282134244,0.283008764,8.463860564
4.804286917,2.15311905,-8.597209121,0.387961589,8.871214151
4.814280917,2.416102252,-9.035404724,0.020944142,9.352888713
4.824274917,2.503031053,-9.233559262,-0.370452687,9.573975991
4.834267917,2.477296872,-8.952584177,-0.33652948,9.295107064
4.844261917,2.493378469,-8.262315692,-0.170734019,8.632030288
4.854255917,2.102746165,-7.812629725,-0.324104147,8.097145679
4.864249917,1.41685739,-7.461036648,-0.308654634,7.600646052
4.874242917,0.753557432,-7.047166046,0.017587237,7.087362513
4.884236917,0.000476548,-6.738070532,0.038714415,6.738181767
4.894230917,-0.562397042,-6.012528718,-0.574357924,6.066026627
4.904224917,-1.120231063,-4.809566424,-1.377484725,5.126822699
4.914217917,-1.451563977,-3.451765766,-1.852168708,4.177589473
4.924211917,-1.497616793,-1.71181916,-1.742534584,2.865241294
4.934205917,-1.342877248,0.890342664,-1.887684696,2.481810402
4.944199917,-0.513727596,4.518311934,-1.315638578,4.733916312
4.954193917,0.018645163,7.856448174,-0.14726695,7.857850413
4.964186917,1.363534145,11.32430372,0.87842253,11.43987353
4.974180917,2.055498616,12.59039665,1.278143016,12.82095207
4.984174917,1.262082907,10.02720067,1.663263735,10.24226795
4.994168917,1.650330425,6.366824378,1.761850276,6.80912326
5.004161917,1.870732448,4.434410237,0.012523859,4.81287761
5.014155917,2.708052852,4.153716989,-2.80284879,5.695864852
5.024149917,4.218252123,4.623082929,-2.063870659,6.589848924
5.034143917,4.731104099,4.365548748,-1.566476967,6.625346176
5.044137917,5.0965963,4.164415054,-1.785775036,6.819577631
5.054130917,5.787093996,4.928883537,-1.734927649,7.797071488
5.064124917,5.902703975,5.920010564,-1.560531372,8.504334039
5.074118917,5.729759708,6.265833609,-1.105046283,8.562239451
5.084112917,5.029765549,6.091007708,-0.675942515,7.928165907
5.094105917,3.829890584,5.566230628,-0.347887989,6.765501559
5.104099917,2.610768925,4.631309962,-0.172047304,5.319280648
5.114093917,1.578796758,3.445677645,-0.228106899,3.797015459
5.124087917,0.826643096,2.227229,-0.306594075,2.395388853
5.134080917,0.345169326,1.045131326,-0.338435673,1.151512074
5.144074917,0.152460155,-0.131686313,-0.315117854,0.374011558
5.154068917,0.12755891,-1.174517929,-0.316633598,1.223119159
5.164062917,0.256254226,-2.066500152,-0.290768001,2.10253065
5.174056917,0.381113038,-2.895221933,-0.433526748,2.952203013
5.184049917,0.461289182,-3.554581452,-0.516716255,3.621440693
5.194043917,0.591786171,-4.022699597,-0.384069755,4.084095065
5.204037917,0.54775269,-4.506396478,-0.17366574,4.542884768
5.214031917,0.369522102,-4.992888329,0.047930796,5.006773194
5.224024917,0.178673661,-5.347553533,0.351685463,5.362083152
5.234018917,-0.094503723,-5.645714754,0.499553397,5.668560631
5.244012917,-0.428742702,-6.054331048,0.508956853,6.090794843
5.254006917,-0.697000093,-6.209725481,0.72663115,6.290826059
5.263999917,-1.120518015,-6.557867532,1.113922648,6.745517834
5.273993917,-1.214806414,-6.497157061,1.442534999,6.765331605
5.283987917,-1.3781956,-6.47270459,1.271431435,6.738832667
5.293981917,-1.564728503,-6.472197636,0.948996668,6.725943221
5.303975917,-1.669511631,-6.532244448,0.716458164,6.780176909
5.313968917,-1.7707933,-6.939381981,0.230986653,7.165478771
5.323962917,-1.788074161,-7.214337941,-0.149186957,7.434119846
5.333956917,-1.961421009,-6.571319051,-0.667283081,6.890186729
5.343950917,-2.355618653,-5.426282784,-0.755773673,5.963612826
5.353943917,-2.634061016,-3.684849815,0.073271386,4.530095396
5.363937917,-3.330758808,-1.776998073,1.276518952,3.985119449
5.373931917,-3.567148873,1.162939857,2.143252459,4.320938705
5.383925917,-3.243700783,6.404971029,4.099195796,8.267324526
5.393918917,-2.856951614,13.74907272,0.465925476,14.05048966
5.403912917,-0.916588476,20.42407635,-3.062568076,20.67274419
5.413906917,-1.132262733,16.99046502,-2.750352488,17.24883646
5.423900917,-1.190390342,7.982008359,-1.795993338,8.267713026
5.433894917,0.199462852,3.597845001,-2.139465802,4.190654841
5.443887917,1.185761832,2.81265574,-3.745549761,4.831791225
5.453881917,1.785318368,2.994083147,-5.974962112,6.917518905
5.463875917,2.8666998,3.854035492,-6.455023195,8.046047586
5.473869917,2.922263844,4.236593669,-5.61132377,7.614151715
5.483862917,1.867529782,4.668732142,-3.831334262,6.321696728
5.493856917,0.474602999,5.170578781,-1.956664299,5.548753744
5.503850917,0.089607703,5.322797007,0.15227435,5.325728588
5.513844917,-0.071388948,5.722378768,1.64397684,5.954273675
5.523838917,-1.061622082,5.854756222,1.242926844,6.078657664
5.533831917,-1.481374982,5.472643018,0.748599724,5.718801884
5.543825917,-1.779500827,4.360352912,-0.049835819,4.709754168
5.553819917,-1.960700339,2.747666861,-0.945439807,3.5054066
5.563813917,-1.605918629,1.137867581,-1.208356862,2.309511546
5.573806917,-1.005815671,-0.197044736,-1.543784215,1.853041148
5.583800917,-0.370294081,-1.159356099,-1.774222984,2.151532353
5.593794917,-0.243046535,-2.377190201,-1.719610575,2.944004993
5.603788917,-0.190497316,-3.601807074,-1.610151867,3.949923096
5.613781917,-0.103312699,-4.560077426,-1.574311359,4.825291277
5.623775917,-0.22922094,-5.440876265,-1.589050435,5.672808656
5.633769917,-0.472303289,-6.193257383,-1.365723635,6.359615433
5.643763917,-0.631037507,-6.754572544,-0.957627817,6.851241466
5.653757917,-0.667274602,-7.129971975,-0.612320423,7.187259009
5.663750917,-0.565224025,-7.37826931,-0.265930198,7.404664414
5.673744917,-0.538251404,-7.531975068,0.011617248,7.551191824
5.683738917,-0.641150705,-7.629220696,0.120899881,7.657068593
5.693732917,-0.558084574,-7.521729577,0.267195463,7.547136386
5.703725917,-0.406442591,-7.3277634,0.407690679,7.350341742
5.713719917,-0.366868928,-7.142045306,0.476969148,7.167349826
5.723713917,-0.614685768,-7.147244065,0.323321205,7.180910313
5.733707917,-0.795750648,-7.204853758,0.176002361,7.250800893
5.743700917,-0.851972357,-7.155300944,-0.158434986,7.207585597
5.753694917,-0.850532919,-6.981465561,-0.805587273,7.079070453
5.763688917,-0.88069315,-6.672695153,-1.441714634,6.883242122
5.773682917,-1.10275929,-6.090265696,-2.01058089,6.507676222
5.783676917,-1.385400831,-5.052906489,-2.590163337,5.844668131
5.793669917,-1.594075094,-3.591585556,-3.131680995,5.024737612
5.803663917,-1.433327096,-1.465959529,-3.583700586,4.128725444
5.813657917,-1.226283914,1.253802665,-3.75913986,4.148123171
5.823651917,-0.818724358,4.841667053,-3.004375416,5.756589361
5.833644917,0.213121947,9.548207876,-0.459649659,9.561640676
5.843638917,1.457974425,14.61305029,2.77619952,14.94570881
5.853632917,1.862000801,16.63894796,3.935682503,17.19916373
5.863626917,1.691072508,13.20117458,4.747473671,14.13043675
5.873620917,2.022021552,9.283140142,3.300063264,10.05761799
5.883613917,3.689122376,7.3126004,0.713922812,8.221522627
5.893607917,4.964517639,5.801410319,-0.286239771,7.640990138
5.903601917,5.458866393,5.171955215,-0.117292807,7.520777928
5.913595917,5.065940518,4.694730032,-0.408769491,6.918911468
5.923588917,4.973826406,5.016459625,-0.823603714,7.112112159
5.933582917,4.631782417,5.651183655,-1.43704227,7.44676947
5.943576917,3.907347773,6.151071476,-2.338261778,7.653137596
5.953570917,3.098393381,6.102989822,-3.041238602,7.489703502
5.963563917,2.233239061,5.228553924,-2.938864381,6.400160677
5.973557917,1.577683156,4.291717125,-2.069757782,5.019145076
5.983551917,0.774203951,3.247471068,-1.233775513,3.559165929
5.993545917,0.165136918,2.1685136,-0.685859612,2.280378223
6.003539917,0.04025004,1.280318618,-0.258133448,1.306701461
6.013532917,0.212361371,0.443247013,0.213465544,0.535847744
6.023526917,0.703800697,-0.48522359,0.535856384,1.008919926
6.033520917,1.19645025,-1.024255012,0.777008421,1.756227097
6.043514917,1.366496929,-1.732374462,0.857459092,2.367207475
6.053507917,1.230882164,-2.704820804,0.401786746,2.998759589
6.063501917,1.055668885,-3.816507477,-0.199359667,3.96483422
6.073495917,0.803562528,-4.750234142,-0.599691607,4.854901355
6.083489917,0.56446798,-5.531641424,-1.074193157,5.663176836
6.093482917,0.500515593,-6.262987184,-1.215053167,6.399365478
6.103476917,0.437989635,-7.0148479,-1.243381757,7.13764136
6.113470917,-0.272414249,-8.684938406,-1.723077389,8.858406195
6.123464917,-0.71534924,-9.533240758,-1.906623827,9.748313613
6.133458917,-1.433770315,-9.787616858,-1.276166511,9.974053441
6.143451917,-2.84106853,-10.01407835,-1.223793,10.48098778
6.153445917,-4.365168094,-10.06718393,-1.982216046,11.15042893
6.163439917,-5.055332499,-9.557110262,-2.71005757,11.14626194
6.173433917,-5.757087255,-9.558912374,-2.941717823,11.53995508
6.183426917,-5.946032428,-9.856217562,-2.248995845,11.72852542
6.193420917,-4.789950477,-9.2367343,-1.898410243,10.57661796
6.203414917,-4.490373061,-8.793437001,-1.362707056,9.96719394
6.213408917,-4.60977759,-8.554481177,-1.221610234,9.793953707
6.223402917,-4.180190257,-6.851505346,-0.727886547,8.05896612
6.233395917,-3.603958557,-4.133578008,-0.075034395,5.48457971
6.243389917,-2.866673487,0.788923293,1.323626021,3.254566436
6.253383917,-2.71646378,8.330981884,1.384078045,8.871308058
6.263377917,-2.731378857,17.65282124,-2.70952255,18.06720899
6.273370917,0.282946181,25.03163083,-5.230074785,25.57374206
6.283364917,2.799436939,20.51146416,0.576487443,20.70964381
6.293358917,0.889273793,7.563780997,2.479363278,8.009296668
6.303352917,1.518113185,1.130746842,-0.813492708,2.060346196
6.313346917,3.930768503,0.549669262,-4.067971079,5.68343787
6.323339917,4.049870439,1.5757679,-4.663419946,6.374321975
6.333333917,2.594911276,3.232143177,-3.777836916,5.608240884
6.343327917,2.330901449,5.90397516,-3.717356826,7.355866096
6.353321917,2.331268216,9.089395575,-3.062561059,9.870724576
6.363314917,1.631970606,11.68282107,-1.624443047,11.90757958
6.373308917,0.15583239,12.49257039,-0.050664954,12.49364501
6.383302917,-1.373964262,11.08597238,0.507043644,11.18229202
6.393296917,-1.872607943,8.820290923,-0.074492321,9.017191446
6.403289917,-1.76642733,6.700329094,-0.829733861,6.978763054
6.413283917,-1.284345888,5.123901043,-1.378999153,5.459445478
6.423277917,-0.770375925,3.810308259,-1.578238349,4.195564846
6.433271917,-0.430058033,2.580619512,-1.363190621,2.950056888
6.443265917,-0.124720379,1.367566093,-0.938530737,1.663319613
6.453258917,0.069813855,0.05847508,-0.402362112,0.412539184
6.463252917,0.120808884,-1.185175649,-0.149328532,1.200639461
6.473246917,0.078869876,-2.305323828,-0.015786313,2.306726602
6.483240917,-0.092819432,-3.351490111,-0.073541034,3.353581622
6.493233917,-0.154689698,-4.31655025,-0.186458936,4.323343833
6.503227917,-0.206471178,-5.198796859,-0.251180597,5.208954868
6.513221917,-0.259498919,-5.888250827,-0.177500436,5.896638356
6.523215917,-0.500869715,-6.578049781,0.022052737,6.597127839
6.533209917,-0.821976945,-7.275849481,0.179951533,7.324343951
6.543202917,-0.974390834,-7.852460373,0.170715272,7.914525577
6.553196917,-1.146367898,-8.506077341,0.094490457,8.583498095
6.563190917,-1.376503269,-9.333216282,-0.208974225,9.436490748
6.573184917,-1.157634752,-10.13228449,-0.330981057,10.20357073
6.583177917,-0.51031158,-10.66411682,-0.011110879,10.67632563
6.593171917,0.130096748,-10.89569697,0.38532391,10.90328446
6.603165917,0.613385201,-11.0016836,0.633046975,11.03693943
6.613159917,0.747270067,-11.32712091,0.943443568,11.39088085
6.623153917,0.612834028,-11.60674763,1.143135923,11.67899464
6.633146917,0.062526031,-11.52433697,1.05721869,11.5728978
6.643140917,-0.731136868,-10.67835129,0.378763919,10.71005179
6.653134917,-1.04049346,-9.397658445,-0.887810819,9.496674099
6.663128917,-0.854016763,-8.119082297,-1.605066544,8.320161092
6.673121917,-0.646624356,-6.279338923,-2.829756507,6.91778449
6.683115917,-0.226388987,-3.322336478,-4.078880814,5.265590218
6.693109917,0.209208406,0.362130929,-5.874033322,5.888902652
6.703103917,2.55272303,7.124291405,-6.28787118,9.839169013
6.713096917,6.537313399,18.71686597,0.916956704,19.84687249
6.723090917,7.36380973,29.12654354,6.945190605,30.83531912
6.733084917,3.34188869,24.13492289,8.103630445,25.67745216
6.743078917,1.412675607,13.21148673,5.099552068,14.23181173
6.753072917,0.971434481,7.116653187,1.077553259,7.263026819
6.763065917,1.866085666,6.210530058,-2.37999014,6.907771883
6.773059917,3.595254392,6.754428118,-4.659440916,8.958713244
6.783053917,2.885332245,6.769171872,-4.112193571,8.429529404
6.793047917,1.962501428,6.880454911,-2.383765249,7.541512342
6.803040917,2.553757403,7.971186917,-1.139547486,8.447488752
6.813034917,3.13444322,9.276860232,-0.397521787,9.800147634
6.823028917,3.466230608,9.239886534,-0.381754331,9.876031296
6.833022917,3.373946927,7.926515944,0.075239632,8.615035338
6.843016917,2.732030822,6.349491477,0.430370275,6.925695128
6.853009917,2.184513336,4.800415531,0.584016391,5.306332343
6.863003917,1.947418389,3.343820903,0.541726989,3.907306584
6.872997917,1.684983948,1.898703774,0.373729466,2.565915166
6.882991917,1.293056924,0.530442447,0.196904841,1.411430804
6.892984917,0.90981053,-0.582425948,-0.093734302,1.084325276
6.902978917,0.529726602,-1.533359799,-0.291880215,1.648331461
6.912972917,0.167091496,-2.533516681,-0.280349432,2.554451437
6.922966917,-0.061558171,-3.522850952,-0.170073357,3.527491061
6.932960917,-0.388973888,-4.627318068,0.104592618,4.644815691
6.942953917,-0.842428386,-5.945707907,0.064996516,6.005443585
6.952947917,-1.191582443,-7.131151943,-0.306523908,7.236515298
6.962941917,-1.319784108,-7.911659338,-0.331920705,8.027848711
6.972935917,-1.498329715,-8.846077729,-0.228686943,8.974986398
6.982928917,-1.711912423,-9.596411152,0.102485327,9.74844882
6.992922917,-2.184277547,-10.3337468,0.259713439,10.56526585
7.002916917,-2.747010219,-11.14206589,0.510840241,11.48706469
7.012910917,-3.27978015,-11.68850808,0.504084368,12.15040246
7.022904917,-3.924628049,-12.25652648,0.066929551,12.86971742
7.032897917,-4.613360471,-12.14388572,-1.096348842,13.03683382
7.042891917,-4.952723805,-11.42973253,-2.034423496,12.62169314
7.052885917,-5.077385858,-10.4081573,-2.049899907,11.76059842
7.062879917,-4.647792386,-9.450252396,-1.226818349,10.60256232
7.072872917,-3.833148361,-9.285455055,-0.542640324,10.06017696
7.082866917,-2.947555098,-9.045308738,-0.369705997,9.520628853
7.092860917,-2.450648918,-8.458540063,-0.713234594,8.835229691
7.102854917,-2.249489935,-7.399790572,-0.704584808,7.766179577
7.112847917,-1.636229718,-4.819730639,0.139224544,5.091800722
7.122841917,-1.005330206,-0.354786826,1.343042285,1.714737617
7.132835917,-0.321164167,6.187269834,3.32350943,7.030730357
7.142829917,0.779771231,15.43402275,2.395430006,15.63826034
7.152823917,2.249765047,26.46549207,-5.967051998,27.22295764
7.162816917,1.325188397,26.58799358,-6.281647403,27.35208622
7.172810917,-1.791124069,11.70158596,-0.446867609,11.84630449
7.182804917,-0.700136978,1.50459793,0.6232056,1.772679311
7.192798917,2.848432513,-0.101107129,-1.839588716,3.392326205
7.202791917,3.535178344,1.270744972,-4.042721633,5.518684346
7.212785917,2.904623671,4.349303429,-4.769251041,7.078067143
7.222779917,3.589463894,8.339017712,-4.643975616,10.1975476
7.232773917,4.014029053,11.74502609,-4.078609504,13.06495781
7.242767917,3.873172844,14.18828048,-2.493272635,14.91727787
7.252760917,2.583683453,14.15775099,-0.268582422,14.3940776
7.262754917,0.935122395,11.86288959,1.032101537,11.94436423
7.272748917,0.089181733,9.540258586,1.133624257,9.607788051
7.282742917,0.035307827,7.872125144,0.827151877,7.915540484
7.292735917,-0.088319854,6.390877485,-0.05990699,6.391768477
7.302729917,-0.381042286,5.050773425,-0.768829336,5.123143953
7.312723917,-0.510913478,3.909588134,-0.964090086,4.058987762
7.322717917,-0.483234951,2.826241161,-1.197744824,3.107369913
7.332711917,-0.373060106,1.616234726,-1.34425032,2.135040387
7.342704667,-0.457559681,0.295769125,-1.101289154,1.228689561
7.352698667,-0.424727273,-1.051949764,-0.424841148,1.211396534
7.362692667,-0.442190567,-2.276445014,-0.086010203,2.320588752
7.372686667,-0.49278784,-3.451144207,0.037602265,3.486351979
7.382679667,-0.405589629,-4.589974825,0.004443299,4.607861932
7.392673667,-0.30725788,-5.573506318,-0.219005708,5.586263831
7.402667667,-0.083354763,-6.41051185,-0.294021977,6.417792387
7.412661667,0.325987681,-7.128532391,-0.212569696,7.13914756
7.422655667,0.590683313,-8.151630823,0.067262861,8.173280623
7.432648667,0.67487591,-9.354659775,0.310507068,9.384110594
7.442642667,0.667463248,-10.47771694,0.443273326,10.50830866
7.452636667,0.892889491,-11.29268549,0.719006966,11.35072545
7.462630667,1.070509046,-11.7712988,0.760716324,11.84433005
7.472623667,1.077832829,-12.12120086,0.784919119,12.19431556
7.482617667,0.925239139,-12.31553425,1.064708388,12.39604998
7.492611667,0.678411794,-12.41818446,1.121760256,12.48718919
7.502605667,0.492925834,-12.29109639,0.997895764,12.34138657
7.512599667,0.315062013,-11.87292341,0.809825335,11.90467939
7.522592667,-0.025018262,-11.15960286,0.757142506,11.18528617
7.532586667,-0.522528095,-10.34639082,0.792178438,10.38982123
7.542580667,-0.927692265,-9.364741545,0.688165242,9.435707103
7.552574667,-1.22356167,-8.027716629,0.330419067,8.127146744
7.562567667,-1.610089156,-6.421896379,-0.548501573,6.643342093
7.572561667,-1.974871651,-4.408181967,-1.837061841,5.167879884
7.582555667,-2.170193505,-1.729605221,-3.890755422,4.779042981
7.592549667,-1.391516288,2.754805142,-6.479923562,7.177372662
7.602543667,0.958882117,12.00963599,-6.658884029,13.76559291
7.612536667,4.768810746,28.94759535,-0.821349612,29.34926656
7.622530667,5.447295923,41.93398065,4.281557588,42.50251171
7.632524667,1.367829948,27.76732786,5.207359521,28.28448423
7.642518667,1.662588528,13.74897682,3.755308764,14.34924765
7.652511667,2.685362147,9.253547968,2.011189585,9.842977365
7.662505667,3.046024841,8.047880167,0.559700708,8.623219086
7.672499667,2.857425531,8.687177889,-0.312236053,9.150378774
7.682493667,1.979300771,10.06404515,-0.659422669,10.27800927
7.692487667,1.651811232,10.68564159,-0.434336989,10.82127836
7.702480667,1.434883771,10.29276367,0.094226163,10.39272601
7.712474667,0.882711609,8.915681815,0.439388509,8.970040371
7.722468667,0.357835784,7.019373645,0.65482208,7.058926602
7.732462667,0.111186998,5.033061624,1.024595904,5.137496339
7.742455667,-0.490381638,2.849190897,1.052091851,3.076566298
7.752449667,-0.969840457,0.560812885,0.647932232,1.294186147
7.762443667,-0.907096033,-1.602780282,0.176471892,1.850100045
7.772437667,-0.654252634,-3.621454303,-0.155977401,3.683382512
7.782431667,-0.416382931,-5.494475352,-0.326582197,5.519899462
7.792424667,-0.222138354,-7.271364082,-0.319907673,7.281787004
7.802418667,-0.264163974,-9.011527035,-0.477933354,9.028057509
7.812412667,-0.435089855,-10.65445839,-0.696674695,10.68607236
7.822406667,-0.428712626,-12.0515196,-0.98106755,12.09898395
7.832399667,-0.359660225,-13.29233267,-1.081595805,13.34111363
7.842393667,-0.26465218,-14.1602115,-0.961589305,14.19529093
7.852387667,0.156237748,-14.40590683,-0.509672552,14.41576664
7.862381667,0.513413345,-13.88892408,-0.046178897,13.89848689
7.872375667,0.159504149,-13.36289219,0.106891195,13.36427159
7.882368667,-0.359975061,-12.90278415,0.519962482,12.91827317
7.892362667,-0.803953634,-12.38815666,0.713449187,12.43470051
7.902356667,-1.197846638,-11.55146688,0.550349841,11.62644007
7.912350667,-1.561519551,-10.71086414,0.35623869,10.82995199
7.922343667,-1.757719949,-9.97644801,0.402680164,10.13810858
7.932337667,-1.885573851,-9.199682248,0.27335799,9.394906429
7.942331667,-2.095793825,-8.403457537,0.023023996,8.660887971
7.952325667,-2.411912576,-7.571974701,-0.282211113,7.951840432
7.962319667,-2.096975547,-6.770552984,-0.848557876,7.138469348
7.972312667,-1.267221732,-6.113633509,-1.447724987,6.409233436
7.982306667,-0.453299692,-5.362017791,-1.293446787,5.534412344
7.992300667,0.458699742,-3.66420739,-0.373342381,3.711631149
8.002294667,2.070881178,0.657176753,0.466209614,2.222111955
8.012287667,3.93406224,7.343211744,2.977106926,8.846624784
8.022281667,6.28752444,16.11078066,4.176365594,17.79135314
8.032275667,6.333206981,24.35655809,2.17502272,25.26028813
8.042269667,3.111577683,23.82076135,-0.43128361,24.02699716
8.052263667,-0.978276455,15.31401918,-5.050012118,16.15483923
8.062256667,-3.961031937,6.28040487,-3.332232306,8.138613609
8.072250667,-4.264824611,2.486244282,-1.705579011,5.222943553
8.082244667,-2.685291688,4.36084057,-4.696775973,6.948915488
8.092238667,-1.740712299,7.790669337,-8.670003448,11.78531153
8.102231667,-0.893464053,10.33784921,-9.019364058,13.74839381
8.112225667,0.044846682,11.77396045,-5.408932925,12.95703328
8.122219667,0.501469494,12.25895425,-3.379708189,12.7261879
8.132213667,1.092119697,11.84353063,-2.778505661,12.21400986
8.142207667,1.830004691,11.27999002,-1.927183807,11.58883641
8.152200667,1.62328983,10.66344089,-1.332220113,10.86824971
8.162194667,0.955390306,9.70512551,-1.04911211,9.808306073
8.172188667,0.38227064,8.105683402,-0.983858426,8.174118403
8.182182667,-0.118767767,6.2125836,-1.205999923,6.329671128
8.192175667,-0.352251327,4.387513813,-1.439845279,4.631145959
8.202169667,-0.410129553,2.618851531,-1.568771707,3.08020036
8.212163667,-0.439595719,0.955190039,-1.601615517,1.915934412
8.222157667,-0.295575143,-0.510025724,-1.507722098,1.618862819
8.232151667,0.026582466,-1.783542277,-1.281790363,2.196523666
8.242144667,0.386925024,-2.832779517,-1.006779438,3.031164068
8.252138667,0.639834935,-3.92439036,-0.633585577,4.026370466
8.262132667,0.901245382,-4.987050469,-0.091497815,5.068657363
8.272126667,1.159370205,-6.023033241,0.261268798,6.13916363
8.282119667,1.686511826,-6.827835817,0.674337747,7.065295145
8.292113667,2.018384145,-7.44209927,0.867133895,7.759551359
8.302107667,1.996917408,-8.35369247,0.918288261,8.63800384
8.312101667,2.182007512,-9.251663995,1.010343316,9.559039548
8.322095667,2.335833868,-10.17110299,0.95688924,10.47965137
8.332088667,2.292571781,-11.14171155,0.951123886,11.41482625
8.342082292,2.120629435,-11.98604364,0.978300574,12.21144477
8.352076292,1.923717285,-12.42827324,0.75141165,12.59870166
8.362070292,1.909481069,-12.54300029,0.710231465,12.70737593
8.372064292,1.904215651,-12.45507922,0.67727071,12.61799236
8.382057292,1.497715757,-12.13025703,0.529091156,12.23381484
8.392051292,0.730520499,-11.72418194,0.504996534,11.75776866
8.402045292,0.025036316,-11.25424239,0.658816897,11.27353708
8.412039292,-0.573429861,-10.51533325,0.537628675,10.54467163
8.422032292,-1.326202889,-9.614273227,-0.051698742,9.705448807
8.432026292,-1.762347582,-8.535176595,-0.716757542,8.744646927
8.442020292,-1.789428669,-7.234166434,-1.606906078,7.623474674
8.452014292,-2.242794581,-6.015101493,-2.711491892,6.968770464
8.462008292,-2.704880446,-4.507630826,-3.621057862,6.383351308
8.472001292,-2.448518485,-1.988664356,-3.957372165,5.060713699
8.481995292,-1.507380036,1.793082009,-4.5144364,5.086007636
8.491989292,0.101635718,7.393900672,-4.795260626,8.813320681
8.501983292,2.328770139,15.74579161,-0.628905466,15.92948982
8.511976292,3.000888137,24.35943492,5.085170256,25.06484302
8.521970292,1.704084755,27.50907505,3.97332103,27.84673042
8.531964292,0.694855407,21.96781847,3.507951369,22.2569898
8.541958292,0.281120461,13.92909212,3.027114068,14.25700023
8.551952292,0.148749877,8.745762312,-0.56420047,8.76520434
8.561945292,3.119606495,8.17434901,-2.497922048,9.098985712
8.571939292,5.269144126,7.956147879,-1.929694601,9.735907258
8.581933292,4.945796024,7.497260149,-0.885606273,9.025192879
8.591927292,4.988932103,7.256429123,-1.162691789,8.882401665
8.601920292,5.850636274,7.722593129,-0.834565927,9.724448042
8.611914292,5.570724798,8.072009872,-1.072657532,9.866149823
8.621908292,4.817358423,7.235672092,-1.34387376,8.795901858
8.631902292,4.105963948,5.583539556,-0.838595828,6.981267569
8.641896292,3.462256256,4.005088368,-0.260632621,5.300554743
8.651889292,2.54554148,2.69836197,0.2100659,3.71551698
8.661883292,1.605772887,1.464028779,0.681796016,2.277439931
8.671877292,1.00029473,0.343196476,0.803006312,1.327852591
8.681871292,0.535325749,-0.631646056,0.887721795,1.21391943
8.691864292,-0.066965091,-1.69321215,0.87488131,1.907057685
8.701858292,-0.504746858,-2.674953811,0.905249555,2.868732131
8.711852292,-0.751914511,-3.690901099,0.890950701,3.87064846
8.721846292,-0.967459106,-4.696875376,0.763778438,4.855921428
8.731840292,-1.037510211,-5.528370491,0.587247489,5.655454654
8.741833292,-1.061507476,-6.189446168,0.364448766,6.290378756
8.751827292,-1.053221241,-6.419722969,0.076372823,6.505993451
8.761821292,-1.251703807,-6.944803519,-0.204884134,7.059676752
8.771815292,-2.022515349,-8.891061528,-0.194031665,9.1202627
8.781808292,-2.183668413,-10.01773754,-0.532655618,10.26680063
8.791802292,-1.957831842,-10.53051496,-0.533898736,10.72426682
8.801796292,-1.899528231,-11.26384117,-0.264639718,11.42595115
8.811790292,-1.84572303,-11.67327257,-0.055918084,11.8184226
8.821784292,-1.921917074,-12.2120128,-0.057452402,12.36245617
8.831777292,-2.4330583,-12.73944686,-0.344831357,12.97428948
8.841771292,-3.063283482,-13.41587498,-0.5713981,13.77301358
8.851765292,-3.413647475,-13.31414279,-1.561192546,13.83317423
8.861759292,-3.357712425,-12.20330864,-2.512101254,12.90370594
8.871752292,-3.049357461,-10.14979457,-1.485190437,10.70152799
8.881746292,-2.993746932,-9.244885318,-0.974747221,9.766297015
8.891740292,-2.058869974,-8.344090172,-0.054367411,8.594518147
8.901734292,-0.611096893,-5.503253776,0.495784282,5.559230486
8.911728292,0.425759161,0.163514462,1.922793717,1.976143598
8.921721292,1.527988547,8.449478633,4.924423281,9.898403044
8.931715292,2.920193052,21.62120254,2.910973163,22.01085395
8.941709292,4.210571805,35.8357183,-3.631139631,36.26448395
8.951703292,-0.305941526,30.0255319,-3.348177663,30.21318354
8.961697292,-6.742917874,9.775954002,-2.126421833,12.06473737
8.971690292,-5.296095112,-0.636601571,-1.617397152,5.574034315
8.981684292,-0.046172538,-1.651706859,-5.581317029,5.82077033
8.991678292,2.126523867,0.70650328,-8.982221375,9.257513244
9.001672292,2.807233032,3.34685093,-7.673641409,8.82987774
9.011665292,3.579757808,5.684770061,-5.677523607,8.795768922
9.021659292,3.316420265,8.161726041,-4.823399767,10.04378418
9.031653292,2.578996909,10.47369172,-3.508771441,11.34287972
9.041647292,1.327879724,11.32009607,-1.112548553,11.45188211
9.051641292,0.280652172,10.79502429,0.891834873,10.83543651
9.061634292,0.06159954,10.03349462,0.95750963,10.0792675
9.071628292,-0.25423986,8.779348719,-0.012660318,8.78303832
9.081622292,-0.630767219,7.01682192,-0.363017221,7.054462322
9.091616292,-1.198515487,5.161336672,-0.559014866,5.32807031
9.101609292,-1.36945065,3.561338494,-0.854861686,3.910155426
9.111603292,-1.274222165,2.077870063,-1.314153532,2.7691489
9.121597292,-0.923314674,0.576631942,-1.428194118,1.795759678
9.131591292,-0.641839068,-0.925941097,-1.288997641,1.711969399
9.141585292,-0.334108294,-2.269271066,-0.713554437,2.402161413
9.151578292,-0.103587811,-3.40054942,-0.192311414,3.407557845
9.161572292,0.02613837,-4.368716184,0.233503879,4.3750301
9.171566292,0.334952779,-5.260270391,0.58387255,5.303163688
9.181560292,0.70210822,-5.829374628,0.561372464,5.898279711
9.191554292,1.023252068,-6.288835385,0.614120781,6.401065508
9.201547292,1.235050352,-7.018525214,0.805880803,7.171784257
9.211541292,1.503074731,-7.755008338,0.962720668,7.957777268
9.221535292,1.659677199,-8.377408192,0.990655156,8.597493475
9.231529292,1.512161158,-9.066733521,0.853806337,9.231536891
9.241522292,1.237722091,-9.638929766,0.739782708,9.746189074
9.251516292,1.103236204,-10.0160933,0.857585392,10.11309586
9.261510292,0.988644664,-10.36352901,0.915504987,10.45075601
9.271504292,0.840965266,-10.69487201,0.860477425,10.76233856
9.281498292,0.6299614,-11.08083151,0.74028089,11.12338501
9.291491292,0.42667732,-11.42731178,0.701967595,11.45680002
9.301485292,0.254043905,-11.67364211,0.881581196,11.70963893
9.311479292,-0.064416582,-11.93855022,1.027767434,11.98288099
9.321473292,-0.718472896,-12.14521655,1.262061857,12.23173285
9.331467292,-1.330103274,-11.92025662,1.366329406,12.07180801
9.341460542,-1.771385184,-11.20489072,0.831048388,11.37444605
9.351454542,-2.131866468,-10.02526875,-0.126482218,10.25021297
9.361448542,-2.691449391,-7.748639551,-0.806632755,8.242328015
9.371442542,-3.722489804,-4.641903362,-2.154734051,6.328275911
9.381435542,-4.220191644,-1.024419903,-4.729535583,6.420900286
9.391429542,-3.754434605,4.402387961,-9.571908395,11.18473197
9.401423542,0.143857293,17.0278299,-9.996920282,19.74604014
9.411417542,4.558003419,35.10556479,2.639520854,35.49849496
9.421411542,4.621650361,39.20683927,9.451245253,40.59386572
9.431404542,4.002733694,21.58441654,4.848065661,22.48138463
9.441398542,3.896483939,7.772986187,0.867827667,8.738136312
9.451392542,6.152133915,6.939046935,-3.284054465,9.837892956
9.461386542,7.993072461,7.686901724,-5.771257982,12.50140329
9.471379542,6.327757376,7.347214748,-5.95448984,11.37884121
9.481373542,4.79386548,8.507590016,-4.18099308,10.6226615
9.491367542,4.922330562,10.66071374,-2.77437168,12.06554159
9.501361542,5.090660791,11.02689095,-1.890489751,12.29150531
9.511355542,4.510576361,9.697641073,-0.977820372,10.73991034
9.521348542,3.645568221,8.04739251,-0.053819966,8.834794307
9.531342542,3.11865106,6.24108059,0.710025204,7.012931424
9.541336542,2.764757688,4.586860598,1.201641701,5.488817541
9.551330542,2.691489152,3.159565197,1.391886417,4.377706465
9.561323542,2.505750593,1.692554923,1.245785401,3.270398977
9.571317542,2.280011524,0.344464737,0.890720394,2.471940801
9.581311542,1.926738834,-0.890403475,0.412096556,2.162166611
9.591305542,1.205101937,-2.276310529,-0.203083009,2.583622072
9.601299542,0.625377402,-3.220455762,-0.653227398,3.345016927
9.611292542,0.014163272,-4.370722364,-0.718090561,4.429341784
9.621286542,-0.395196495,-5.34283483,-0.66704795,5.398797761
9.631280542,-0.773187851,-6.154339485,-0.623686241,6.233995386
9.641274542,-1.495718787,-7.65701602,-0.693512448,7.832498231
9.651267542,-1.878593737,-9.202265548,-1.174102192,9.46516358
9.661261542,-2.13257939,-9.999597137,-0.418553088,10.23303593
9.671255542,-2.507607669,-10.80558319,-0.503674442,11.10416193
9.681249542,-2.736730229,-11.90608414,-0.603917974,12.23148596
9.691243542,-3.078378654,-12.98648821,-0.62305825,13.36089416
9.701236542,-3.542147056,-13.71933027,-0.906753459,14.19820519
9.711230542,-4.043702211,-14.03675339,-1.432371368,14.67765857
9.721224542,-4.504864508,-14.02012391,-1.859012874,14.84296492
9.731218542,-4.995346498,-13.82349608,-1.860748327,14.81569826
9.741212542,-4.7137864,-13.06555894,-1.202778107,13.94185381
9.751205542,-4.227810566,-12.20043414,-0.654377691,12.92877356
9.761199542,-3.731872247,-11.18004122,-0.277352149,11.78970383
9.771193542,-3.508284953,-10.03883663,0.047191128,10.63430916
9.781187542,-2.946415476,-8.964011976,0.259469025,9.439396116
9.791180542,-1.800534139,-7.307882282,1.011142631,7.594042142
9.801174542,-1.12334529,-5.3375852,2.011322901,5.813530788
9.811168542,-0.715276004,-2.103277969,2.784539988,3.562170816
9.821162542,-0.087991532,3.695028648,3.635684087,5.184513285
9.831156542,1.174710595,11.95732446,3.890807462,12.62917004
9.841149542,2.104786258,23.03291453,-3.547421536,23.39934778
9.851143542,0.826066561,28.73744408,-6.669455795,29.51278908
9.861137542,-3.400609938,16.84543068,-2.925414616,17.43246206
9.871131542,-2.068792114,5.062640349,-1.187710855,5.596506517
9.881125542,3.093531421,2.584889148,-2.101830783,4.546348117
9.891118542,5.672914832,3.067645213,-2.388250794,6.877219765
9.901112542,5.168580202,4.493349586,-3.307288084,7.605430052
9.911106542,4.041547512,7.263366845,-4.028191302,9.236716374
9.921100542,3.469889796,10.63200392,-3.233886817,11.64206452
9.931093542,2.649142447,13.58625349,-2.10557417,14.00134573
9.941087542,1.469751302,14.79077173,-0.913537325,14.8916637
9.951081542,0.029538087,13.28487162,0.110909986,13.28536742
9.961075542,-0.784282212,11.01116778,0.425885533,11.04727537
9.971069542,-0.727772673,8.847231969,0.248959167,8.880605117
9.981062542,-0.695536681,6.765033213,-0.06624201,6.801017104
9.991056542,-0.628585477,5.226494535,-0.246097539,5.269907857
10.00105054,-0.449630126,4.10585402,-0.13410823,4.132576618
10.01104454,-0.50258295,3.051205766,-0.16280863,3.096603446
10.02103754,-0.805673081,1.893226687,-0.275306867,2.075863741
10.03103154,-1.162380133,0.570039791,-0.16051305,1.304544892
10.04102554,-1.532204974,-0.808513219,0.051662489,1.73320937
10.05101954,-1.800175412,-2.101350142,0.188232433,2.773397805
10.06101354,-1.891560815,-3.185771248,0.147417735,3.707947242
10.07100654,-1.778920637,-4.257422621,0.010658232,4.614143431
10.08100054,-1.617587479,-5.301865144,-0.087883633,5.543833222
10.09099454,-1.604335057,-6.262307153,-0.158948371,6.46650187
10.10098854,-1.28758583,-7.087179712,-0.088813359,7.203740789
10.11098254,-0.852890224,-7.880091391,0.082340473,7.926540356
10.12097554,-0.714384449,-8.642285306,-0.026573256,8.671801808
10.13096954,-0.238842387,-9.164902425,0.153033328,9.169291213
10.14096354,0.423626827,-9.632811824,0.594839587,9.660453274
10.15095754,0.746809234,-10.02345845,0.864975103,10.08839062
10.16095054,0.935459341,-10.2795665,1.24569667,10.39693858
10.17094454,1.125120359,-10.43095325,1.561810012,10.60706991
10.18093854,0.697708921,-10.36805125,1.285565325,10.4707193
10.19093254,0.428982731,-10.18632095,1.156638898,10.26074921
10.20092654,0.206602448,-10.12091049,1.314240071,10.20797437
10.21091954,0.080100861,-10.18635954,1.626937469,10.31577735
10.22091354,-0.110717467,-10.21057871,1.787449386,10.36644352
10.23090754,-0.419319037,-10.10942422,1.686052819,10.25763426
10.24090154,-1.165357096,-9.689182491,1.073675094,9.817896553
10.25089554,-1.640307274,-8.83510309,0.479206147,8.998849543
10.26088854,-1.452527305,-7.533048617,-0.336245306,7.679174301
10.27088254,-0.872837123,-5.904125433,-1.245618317,6.096893206
10.28087654,-0.476314187,-4.132488087,-1.836998692,4.547405545
10.29087054,0.050188114,-2.61687985,-2.056891422,3.328870878
10.30086354,0.890927824,-0.598286521,-2.428403624,2.654965783
10.31085754,1.637954354,4.508439496,-5.058819194,6.971411105
10.32085154,2.862716092,15.88229837,-6.150527101,17.27053933
10.33084554,5.645332346,33.46704399,-2.540009429,34.03475368
10.34083921,3.211594892,37.34630904,6.300207635,38.00991656
10.35083221,-0.512735762,24.12686075,9.162165928,25.81305081
10.36082621,-2.192344219,14.62715845,4.02701952,15.32896029
10.37082021,-2.119980833,10.93663216,0.4818094,11.15062249
10.38081421,-1.213438604,10.73517219,-2.642230453,11.12194843
10.39080821,-0.876322064,11.03367255,-5.884205139,12.53529977
10.40080121,0.495780006,12.05206806,-7.40935077,14.15615136
10.41079521,2.077217513,11.74423789,-5.781560776,13.25399567
10.42078921,2.504708619,9.491132035,-2.827515854,10.2151847
10.43078321,2.426904398,7.198394923,-0.724020953,7.630921358
10.44077621,2.239400126,5.435916656,0.769080766,5.929214791
10.45077021,2.097679698,4.088048079,1.843907762,4.950999197
10.46076421,1.709691797,3.012142857,2.198125069,4.1021707
10.47075821,1.083197869,1.948629055,2.02949137,3.014847929
10.48075221,1.219000476,0.156315955,2.056179231,2.395468612
10.49074521,1.154454086,-1.796754645,1.621030612,2.681199682
10.50073921,1.026687453,-3.186304514,1.005076729,3.495254328
10.51073321,1.007414592,-4.443666379,0.341176262,4.569185518
10.52072721,0.978545938,-5.849684932,-0.069586526,5.931374903
10.53072121,0.821744664,-7.595126166,-0.558436577,7.659834018
10.54071421,0.509695941,-9.583226266,-1.2240456,9.674518244
10.55070821,0.560757848,-11.00298402,-1.498178272,11.11866201
10.56070221,0.497782459,-12.31443965,-1.299524968,12.39281955
10.57069621,0.514137267,-13.77506008,-1.014298958,13.82191809
10.58068921,0.62433287,-14.91618866,-1.108785285,14.97036674
10.59068321,0.629745491,-15.51395887,-1.480192237,15.59713013
10.60067721,0.33695947,-15.63538215,-1.90979945,15.75519123
10.61067121,-0.262119203,-15.1977087,-1.712138418,15.29609343
10.62066521,-0.51234875,-14.40930406,-1.396744283,14.48590485
10.63065821,-0.858593891,-13.46285034,-1.067160711,13.53234476
10.64065221,-1.69047273,-12.52786185,-0.818369871,12.66786287
10.65064621,-2.487667494,-11.48232239,-0.092932137,11.74907883
10.66064021,-3.123426773,-10.4144337,0.6226583,10.89054303
10.67063421,-3.342179005,-9.512914667,1.194159969,10.15340948
10.68062721,-3.240974811,-8.719217708,1.572636132,9.434079688
10.69062121,-3.041927697,-7.755824609,1.589725204,8.481354002
10.70061521,-2.550663641,-6.223768739,1.503914976,6.89223785
10.71060921,-1.567353903,-3.71284453,1.13090881,4.185781587
10.72060221,-0.031169314,0.013577235,0.542087798,0.543152878
10.73059621,1.440521364,6.0350902,-0.276095035,6.210768389
10.74059021,2.494563115,17.89857971,-1.351996127,18.12208306
10.75058421,5.114752489,38.95997918,-3.310221047,39.43346592
10.76057821,4.76243962,49.45587161,-2.980857915,49.77398499
10.77057121,1.008395316,27.863704,2.371043608,27.98257868
10.78056521,1.555815008,13.40219484,1.551725904,13.58113545
10.79055921,0.574014436,10.66202469,-2.280839782,10.91835579
10.80055321,3.301428005,11.12263092,-2.421329663,11.85222269
10.81054721,3.255289088,11.07751848,-2.560591629,11.82645138
10.82054021,2.104444342,10.06750553,-2.926626159,10.69338554
10.83053421,2.664657449,9.123460284,-0.722864959,9.532075358
10.84052821,3.546349157,8.299356633,2.775860381,9.442526872
10.85052221,3.310961013,6.994138232,4.191992278,8.800751768
10.86051521,2.871432244,5.89107971,4.260107077,7.816550108
10.87050921,2.339186808,4.518518341,4.136447822,6.557362542
10.88050321,1.938445837,2.40500716,3.391883846,4.587647298
10.89049721,1.941028113,0.158514508,2.366122591,3.06451515
10.90049121,1.62470778,-2.198047301,1.085498237,2.940985163
10.91048421,1.091881496,-4.653770286,-0.446680571,4.800969341
10.92047821,0.713608524,-6.934504234,-1.275351409,7.086826321
10.93047221,0.300178437,-9.08902837,-1.68351162,9.248500158
10.94046621,0.055467565,-11.21306629,-2.230374802,11.43286946
10.95046021,0.091561038,-12.51676851,-2.496246529,12.76358586
10.96045321,-0.046566348,-13.25398897,-2.409863273,13.47137087
10.97044721,-0.414842482,-14.44222973,-2.227960487,14.61895693
10.98044121,-0.957231595,-15.8991021,-1.967590406,16.04896109
10.99043521,-0.752923521,-17.10877174,-1.222472114,17.16890801
11.00042821,-0.561876494,-17.32009245,-0.375579525,17.33327342
11.01042221,-0.688768675,-16.44605533,0.381405691,16.46489018
11.02041621,-0.814780557,-15.63072426,0.528962517,15.6608815
11.03041021,-1.077231955,-14.92263346,-0.238361746,14.96336307
11.04040421,-1.439178405,-13.64338313,-1.224507603,13.77361813
11.05039721,-1.952097331,-12.07749293,-1.894226561,12.38000863
11.06039121,-1.938925893,-10.30401722,-2.12188147,10.69741022
11.07038521,-1.613636808,-8.980050888,-1.93015887,9.325805647
11.08037921,-1.368902181,-8.287759851,-0.939663928,8.452444902
11.09037321,-1.390305914,-7.185887729,0.440215816,7.332374987
11.10036621,-1.630846333,-5.027240721,1.308644285,5.444755173
11.11036021,-2.185872083,-2.391712346,1.720558993,3.668602998
11.12035421,-2.595048101,0.56379555,1.96533455,3.303737272
11.13034821,-2.6129628,5.167404912,1.556696037,5.996077941
11.14034121,-3.221826642,10.89053739,0.116322169,11.35770674
11.15033521,-2.065950806,18.02934216,-3.322270989,18.44892453
11.16032921,1.749728267,26.79371733,-9.019461122,28.32517461
11.17032321,4.224675874,30.07635122,-6.250336733,31.00808762
11.18031721,3.492316207,19.28843013,0.806775427,19.61863135
11.19031021,2.82768016,9.041529683,-0.551869605,9.489446462
11.20030421,3.952295027,7.37444757,-1.597281561,8.517888314
11.21029821,3.428535655,9.426864703,-2.127412351,10.25409763
11.22029221,2.135521562,11.14130342,-3.033416197,11.74268742
11.23028621,0.794628275,10.88541756,-2.841542155,11.27821402
11.24027921,-0.106809773,10.18652093,-1.559591578,10.30577231
11.25027321,-0.492020247,9.987371778,-0.286474939,10.0035867
11.26026721,-0.178872905,9.991220416,-0.043279903,9.992915193
11.27026121,-0.152042664,9.492403804,0.02799064,9.493662646
11.28025521,-0.362027434,8.340878881,0.011349446,8.348739616
11.29024821,-1.128190147,6.400653445,-0.647925289,6.531537698
11.30024221,-1.411261897,4.568588049,-0.989858766,4.88297832
11.31023621,-1.349071934,3.414952281,-2.017449614,4.189510366
11.32023021,-1.724018498,2.117275618,-2.473221948,3.684009043
11.33022321,-1.292007495,0.599806212,-1.907537162,2.380703443
11.34021721,-0.864925767,-1.003510845,-1.650452632,2.116394218
11.35021179,-0.533493597,-2.52424709,-1.386392373,2.928911505
11.36020579,-0.145433556,-4.059466889,-1.068424879,4.20023262
11.37019979,0.316033089,-5.429784096,-0.86718769,5.507671626
11.38019279,1.070813978,-6.494980143,-0.645376487,6.614221076
11.39018679,1.719603558,-7.46920053,-0.303797863,7.670611846
11.40018079,2.074492126,-8.527578723,0.072696057,8.776582545
11.41017479,2.421489877,-9.533396294,0.37769037,9.843368739
11.42016879,2.700531287,-10.4461373,0.634604747,10.80820878
11.43016179,2.77266634,-11.3483042,0.954282551,11.72102138
11.44015579,2.738028019,-12.22766697,1.264825251,12.59414228
11.45014979,2.686785944,-12.86475503,1.573290435,13.23616196
11.46014379,2.716172296,-13.2792045,1.780759002,13.67062423
11.47013679,2.675184191,-13.50663312,1.671123708,13.87005419
11.48013079,2.556427534,-13.43515442,1.544647264,13.76316211
11.49012479,2.069701795,-13.38877898,1.482863245,13.6287179
11.50011879,1.195507094,-13.33041559,1.505909461,13.46836962
11.51011279,0.342528358,-13.01830876,1.730275311,13.13725775
11.52010579,-0.514042761,-12.41248693,1.659293622,12.53344833
11.53009979,-1.470447852,-11.47709732,1.195237538,11.6324792
11.54009379,-2.440318788,-10.44457025,0.578548075,10.74145806
11.55008779,-2.823298257,-9.094318931,0.501888739,9.535698305
11.56008179,-2.913768716,-7.348281865,0.51190268,7.921448027
11.57007479,-3.545232924,-5.638589922,-0.519661972,6.680750059
11.58006879,-4.761849051,-3.770564734,-3.799692639,7.164497816
11.59006279,-5.109637345,-0.176050892,-9.345750958,10.65281412
11.60005679,-0.907226206,10.55590123,-12.17703125,16.14094794
11.61004979,5.390358075,32.9818584,-3.311133213,33.58306935
11.62004379,2.662196648,47.57917734,8.159598824,48.34712463
11.63003779,-0.994037771,33.69195597,8.448845379,34.74937404
11.64003179,2.48891529,19.96921677,7.175934598,21.36488603
11.65002579,4.695477891,13.27233753,4.061976514,14.65271679
11.66001879,3.924797911,10.30532232,1.345250194,11.1091586
11.67001279,3.987868026,10.23457568,-2.212054306,11.20458902
11.68000679,3.754283747,9.679690706,-2.901761459,10.7801335
11.69000079,3.510510695,8.549190617,-1.856848819,9.426570589
11.69999479,3.911597822,7.973571997,-1.903280389,9.083001935
11.70998779,3.572774771,7.317332552,-2.04662605,8.396234479
11.71998179,2.98269394,6.260023815,-0.861039927,6.987542563
11.72997579,2.926881975,5.322986457,0.39479238,6.087420138
11.73996979,2.625538115,4.013168635,1.353145105,4.982968449
11.74996379,2.32472869,2.510559343,1.68825605,3.815426606
11.75995679,2.060033131,0.959874244,1.811629962,2.9063892
11.76995079,1.560922405,-0.766688086,1.403642828,2.234838375
11.77994479,0.925016945,-2.578425636,1.022469857,2.923932236
11.78993879,0.354186902,-4.233708068,0.91172827,4.345225058
11.79993179,-0.058151144,-5.717478801,0.883096794,5.785568714
11.80992579,-0.480949348,-7.085663529,0.795195601,7.146347036
11.81991979,-0.96542157,-8.306097888,0.668725004,8.388712301
11.82991379,-1.289554296,-9.190184616,0.578134092,9.298208568
11.83990779,-1.62413256,-9.931100514,0.253521237,10.06622258
11.84990079,-1.839851548,-10.47664106,-0.280169923,10.64065584
11.85989479,-1.948558596,-10.84399823,-0.501396403,11.02907868
11.86988879,-2.002980386,-10.9712009,-0.425889553,11.16067029
11.87988279,-2.073432318,-11.23874609,-0.500008859,11.43934195
11.88987679,-2.113540709,-11.80729192,-0.503762771,12.0055393
11.89986979,-2.206777194,-12.41292781,-0.485498409,12.61690735
11.90986379,-2.35961464,-12.90222048,-0.763677939,13.13842755
11.91985779,-2.524834151,-13.16176201,-1.159603436,13.45181946
11.92985179,-2.587552848,-13.10746476,-1.060297834,13.40243611
11.93984579,-2.48019329,-12.43581849,-0.813538316,12.70680073
11.94983879,-2.729475881,-11.61897883,-0.791138218,11.96146343
11.95983279,-2.590422661,-10.9394318,-0.265221516,11.24507893
11.96982679,-2.036650262,-9.980839269,-0.052467048,10.18665056
11.97982079,-1.370330364,-8.803003045,0.301949047,8.914137151
11.98981379,-1.192559074,-7.31528895,0.866242779,7.462307024
11.99980779,-0.755212048,-4.312529705,1.421409009,4.6031143
12.00980179,0.926439426,1.997798876,2.107855754,3.048367799
12.01979579,4.096860125,12.9020357,3.290407172,13.93102895
12.02978979,6.646206096,31.92241543,-5.200259832,33.0190152
12.03978279,2.038643578,42.25914665,-6.872514392,42.86283935
12.04977679,-5.219410633,22.1082335,0.104452322,22.7162309
12.05977079,-5.603645791,2.634196964,1.872846947,6.468956291
12.06976479,-1.705484871,-2.807169882,-1.011682913,3.436914853
12.07975879,1.755157261,-0.592585486,-5.156601012,5.47925803
12.08975179,2.574997121,4.132543051,-6.686149596,8.27122232
12.09974579,2.04253373,9.067642763,-6.017846761,11.07287537
12.10973979,1.621630244,13.3188381,-5.056834649,14.33850444
12.11973379,0.877347081,15.34415339,-3.491303469,15.76077349
12.12972779,-0.208534807,14.40063498,-2.295948987,14.58400344
12.13972079,-0.626791843,12.12232587,-1.326787026,12.21081555
12.14971479,-0.445321898,10.16880269,-0.792198318,10.20933093
12.15970879,-0.551537739,8.30526466,-0.690131661,8.352119292
12.16970279,-0.379924591,6.710055352,-0.726268623,6.759929855
12.17969579,-0.240320125,5.345464908,-1.188164672,5.481193678
12.18968979,-0.106422541,4.046496595,-1.603900609,4.354073681
12.19968379,0.110516615,2.660316476,-1.657000344,3.136103923
12.20967779,0.267477226,1.254473925,-1.477093213,1.956285576
12.21967179,0.210809812,-0.214300454,-0.974274693,1.019596312
12.22966479,0.215190034,-1.611686177,-0.619071618,1.739853083
12.23965879,0.291604445,-3.074940199,-0.40872973,3.115662108
12.24965279,0.60038706,-4.425939376,-0.122086336,4.468143804
12.25964679,0.80275342,-5.742468631,-0.00703537,5.798310834
12.26964079,1.218379209,-6.923006269,-0.023234505,7.029438351
12.27963379,1.644673244,-7.987288395,-0.09945646,8.155465503
12.28962779,1.906418298,-9.108074505,-0.014634411,9.305464313
12.29962179,2.140475323,-9.893016429,0.278623919,10.1257612
12.30961579,2.223045025,-10.56444986,0.549232475,10.80977273
12.31960979,2.170892247,-11.24793324,0.510772998,11.46689428
12.32960279,2.116123132,-11.97557713,0.666762679,12.17936768
12.33959679,2.176447687,-12.6461288,0.945905246,12.86686578
12.34959104,2.29665767,-12.88484255,1.161475714,13.13936185
12.35958504,2.011523022,-12.82281996,1.234406866,13.03820145
12.36957804,1.667300799,-12.65394536,1.41897072,12.8419509
12.37957204,1.197704697,-12.32534237,1.557386009,12.48094596
12.38956604,0.326342753,-11.93764858,1.66465318,12.05757121
12.39956004,-0.638800051,-11.23809588,1.856706147,11.40834003
12.40955404,-1.731929196,-10.24788629,1.941886046,10.57306358
12.41954704,-2.423974651,-9.056769866,1.59402934,9.510082179
12.42954104,-2.733818901,-7.803311017,0.781840634,8.305221453
12.43953504,-3.161008875,-6.508381961,-0.120789369,7.236408151
12.44952904,-3.676228681,-5.105271814,-1.169164803,6.398859581
12.45952304,-4.143444892,-3.391125462,-2.526692981,5.920476746
12.46951604,-4.317296939,-0.951655982,-4.325708159,6.185180115
12.47951004,-3.706863413,3.034284509,-6.775279874,8.297718735
12.48950404,-1.227500719,10.31769269,-6.46001087,12.23492055
12.49949804,1.310403859,20.98870221,-1.30673707,21.0701291
12.50949204,2.949553969,29.56415618,5.888721528,30.28887981
12.51948504,0.907944244,26.9970297,5.615684624,27.5898512
12.52947904,1.179142199,16.58950273,3.237777554,16.94358819
12.53947304,4.142560793,10.84588454,1.835049815,11.754209
12.54946704,6.059642074,8.558208777,0.226406967,10.48873013
12.55946104,6.828384871,7.824270946,-2.500205678,10.68162367
12.56945404,8.130751001,8.954981536,-3.361608717,12.55393242
12.57944804,8.760505482,10.7154811,-3.439894749,14.2618676
12.58944204,7.927368468,11.53902985,-2.404109613,14.20465149
12.59943604,6.6247895,9.901931094,-1.355601812,11.99056844
12.60942904,5.469846295,7.638200265,-0.914820278,9.439185236
12.61942304,4.498042854,5.89195153,-0.423413258,7.424739802
12.62941704,3.423714334,4.503509123,0.128821616,5.65862256
12.63941104,2.395857145,3.467379001,0.622160118,4.260273678
12.64940504,1.308833004,2.428531094,0.979317551,2.927434025
12.65939804,0.280992334,1.240831786,1.060805372,1.656480682
12.66939204,-0.491391379,-0.228592218,0.709925801,0.893148662
12.67938604,-0.917336335,-1.577967038,0.303642401,1.850320143
12.68938004,-1.169159321,-2.626869818,0.447358848,2.909898366
12.69937404,-1.693154555,-4.135314631,0.520590547,4.498734707
12.70936704,-2.027233175,-5.625873982,0.343008268,5.989806931
12.71936104,-2.103121117,-6.738043635,0.270239523,7.063807745
12.72935504,-2.009618584,-7.627980502,0.394056654,7.898096861
12.73934904,-2.028966728,-8.421198574,0.699689592,8.690388768
12.74934304,-2.220160009,-9.25048929,0.611796549,9.532835758
12.75933604,-2.541681733,-9.869400694,0.754812391,10.21934234
12.76933004,-2.813893011,-10.42429678,0.77045954,10.82485867
12.77932404,-2.981979411,-10.95264534,0.683284571,11.37187403
12.78931804,-2.802618409,-10.4587322,0.832470431,10.85968491
12.79931104,-3.22454472,-10.45373517,0.63830428,10.95836211
12.80930504,-3.49192035,-10.7880813,0.308213754,11.34333292
12.81929904,-3.397065941,-11.30220242,0.196699165,11.80332695
12.82929304,-2.411937573,-10.79702754,0.78131548,11.09070334
12.83928704,-2.418629419,-9.81447312,1.394729333,10.20386793
12.84928004,-2.589406123,-8.711165507,0.955711026,9.137987312
12.85927404,-2.669921113,-7.280368794,0.162227526,7.756195349
12.86926804,-2.315688602,-5.600429823,-0.208207582,6.063874859
12.87926204,-1.843250535,-3.618081629,-0.72135338,4.124128745
12.88925604,-1.76952884,-1.151244841,-0.641813779,2.206472734
12.89924904,-1.731524277,2.531891155,-0.686808176,3.143303137
12.90924304,-1.606180146,7.482033999,-1.989185343,7.906801234
12.91923704,-1.789276933,13.5507223,-4.820352198,14.49342548
12.92923104,-0.576567184,17.93161648,-5.70173108,18.82511717
12.93922504,-0.434626902,13.75408261,-0.020640598,13.76096345
12.94921804,-1.6432876,6.383952042,1.764989061,6.824252648
12.95921204,-0.536224759,3.387058139,-1.252905117,3.650954815
12.96920604,0.84402833,3.086312449,-3.533503994,4.766902435
12.97920004,1.085451386,4.15176051,-4.19596663,6.001787734
12.98919404,1.431282617,6.423519566,-4.510969001,7.978659967
12.99918704,1.974679863,8.943084791,-4.570168551,10.23545635
13.00918104,2.277477925,11.18865066,-3.968445622,12.08806725
13.01917504,1.918014496,12.48640743,-2.925770127,12.96723875
13.02916904,0.647161058,11.93769886,-1.663420733,12.07039519
13.03916204,-0.456679237,10.45087822,-0.672309494,10.48243348
13.04915604,-1.075591519,8.893142552,-0.275458821,8.962184953
13.05915004,-1.585402065,7.097431051,-0.227950194,7.275918397
13.06914404,-1.962921989,5.366776839,-0.444564976,5.73175317
13.07913804,-2.106255371,4.022038862,-0.763389087,4.603897391
13.08913104,-2.133524738,2.807720105,-1.139344076,3.705850094
13.09912504,-2.161406309,1.572746644,-1.392567033,3.014042498
13.10911904,-2.185059466,0.354081652,-1.497591212,2.672571444
13.11911304,-2.166338143,-0.914964704,-1.420614957,2.747422103
13.12910704,-2.132660227,-2.221006393,-1.287818842,3.337601896
13.13910004,-1.947946685,-3.320197567,-1.234673499,4.042601491
13.14909404,-1.681099058,-4.203883175,-1.391965939,4.736696842
13.15908804,-1.482164795,-5.089237579,-1.313141963,5.460905917
13.16908204,-1.349407711,-6.075218471,-1.067335542,6.314141731
13.17907604,-1.091789768,-7.041947991,-0.643560927,7.155082604
13.18906904,-0.729263421,-7.861996597,0.01221487,7.895756128
13.19906304,-0.561273207,-8.598563336,0.495523496,8.631098574
13.20905704,-0.66508789,-9.482022657,0.931072029,9.550810997
13.21905104,-0.841794694,-10.32450001,1.272550592,10.43663278
13.22904504,-1.073037601,-11.08440533,1.296567446,11.21144675
13.23903804,-1.248729913,-11.78054559,1.125373836,11.89987593
13.24903204,-1.258458803,-12.25933783,1.017626023,12.3657044
13.25902604,-1.208507063,-12.3722382,1.024489339,12.47326525
13.26902004,-1.184678197,-12.35731377,1.549217302,12.5102654
13.27901404,-0.943977272,-11.71700624,1.481821417,11.8480008
13.28900704,-0.102583551,-9.392183697,0.885909305,9.434430204
13.29900104,0.073022953,-6.756137844,0.911891115,6.817791161
13.30899504,0.387115789,-6.07848648,1.274482512,6.222713411
13.31898904,1.095215798,-4.764400776,0.662776193,4.933384708
13.32898304,1.870578666,-2.921346123,-0.676079632,3.534177611
13.33897604,2.505857012,-0.993258922,-2.321910478,3.557688986
13.34896958,3.442776257,2.346121606,-3.914484007,5.716658114
13.35896358,5.337526728,8.132846058,-4.386998674,10.67136982
13.36895758,9.331128241,16.51320242,-2.428037589,19.1220076
13.37895058,9.529144784,19.25180083,0.009803734,21.4810738
13.38894458,7.10517101,13.05951759,0.707240614,14.88403991
13.39893858,6.408778735,8.733311836,1.632767143,10.95486691
13.40893258,4.543081325,6.923397447,1.373418863,8.394003783
13.41892658,2.972002891,6.87531287,0.176618949,7.492257503
13.42891958,2.12186539,8.065337614,-1.014512966,8.401263008
13.43891358,1.325607058,9.323228652,-2.101550117,9.648644437
13.44890758,0.630616946,10.20272005,-3.066465537,10.67222494
13.45890158,0.308791312,10.27729778,-3.79463012,10.95980928
13.46889558,0.317133243,9.122683774,-3.761353616,9.872776395
13.47888858,0.231178442,7.489804364,-3.312284822,8.192792175
13.48888258,0.076028568,6.054372563,-2.745866504,6.648382535
13.49887658,0.313155382,4.722639377,-1.90626817,5.102474627
13.50887058,0.968780138,3.610841022,-0.872712139,3.839053831
13.51886458,1.582568651,2.766760359,0.20679716,3.194096349
13.52885758,1.899644006,1.974805285,1.089200621,2.948705013
13.53885158,2.077767882,1.246166201,1.536802494,2.869113361
13.54884558,2.142732349,0.571229115,1.77435747,2.840061452
13.55883958,2.066628206,-0.156881965,1.782030187,2.733348803
13.56883358,1.850201705,-0.902303728,1.646429747,2.635930439
13.57882658,1.533093751,-1.870363489,1.422270888,2.80561767
13.58882058,1.21326465,-2.834006263,1.137537067,3.28596914
13.59881458,0.762246979,-3.799129552,0.900681564,3.978144428
13.60880858,0.13598314,-4.650394689,0.874835555,4.733920091
13.61880158,-0.573312624,-5.605304062,0.908723824,5.707354902
13.62879558,-1.414030699,-6.852566031,0.932099677,7.058750161
13.63878958,-2.307380878,-8.017096331,0.866228746,8.387382926
13.64878358,-2.980988892,-8.76246196,0.778042063,9.288292837
13.65877758,-3.397316494,-9.15994691,0.789980908,9.801553784
13.66877058,-3.805713809,-9.436517871,0.869780418,10.21214204
13.67876458,-3.99847546,-9.621367069,0.786749883,10.44880307
13.68875858,-4.258824783,-9.677610267,0.825431772,10.60542628
13.69875258,-4.385155047,-9.818057463,0.60532613,10.76987729
13.70874658,-4.26568269,-10.07077178,0.532962012,10.94991058
13.71873958,-3.616687945,-9.878696598,0.233948341,10.52253819
13.72873358,-2.828014036,-9.450629541,0.141820707,9.865707031
13.73872758,-1.9837372,-8.839752796,0.252756422,9.063130175
13.74872158,-1.237248905,-8.112009505,0.175296017,8.207692231
13.75871558,-0.604848997,-7.265008743,-0.06143304,7.290402483
13.76870858,0.036096178,-6.094662217,-0.357960622,6.105272008
13.77870258,0.626329109,-4.749683334,-0.775368789,4.85314091
13.78869658,1.081627599,-2.88176632,-1.431070948,3.394474841
13.79869058,1.950356323,0.349303892,-2.288859823,3.027339142
13.80868458,3.796174369,5.795663091,-2.040884085,7.222593603
13.81867758,5.835556889,12.45389106,0.174857512,13.75440664
13.82867158,6.809609461,18.66897493,2.086494706,19.98136297
13.83866558,5.461343858,20.39493383,3.256536591,21.36316066
13.84865958,2.668269274,16.30578297,3.091393679,16.80937042
13.85865358,1.109968323,11.86452798,1.555368719,12.01741343
13.86864658,0.526090949,9.140207879,0.435821049,9.165703014
13.87864058,0.401541309,7.801220638,0.336088673,7.818774485
13.88863458,0.888209819,7.840996907,0.156148798,7.892688491
13.89862858,1.556521351,8.525848532,0.096907148,8.667308861
13.90862258,2.31836882,9.431224971,0.422793526,9.721192973
13.91861558,3.136178089,10.12472989,0.521503882,10.61215033
13.92860958,3.475894886,9.880386443,0.475603239,10.48475465
13.93860358,3.48651226,8.619166,0.340256642,9.303846778
13.94859758,3.427788674,6.771580925,-0.101882982,7.59041656
13.95859158,3.547504567,4.787401968,-0.555286609,5.984342025
13.96858458,3.450595738,2.708476483,-0.785856355,4.45645891
13.97857858,3.365443321,1.048864773,-1.042479029,3.676015314
13.98857258,3.224245635,-0.191196935,-0.729772274,3.311326585
13.99856658,2.746856437,-1.276676973,-0.230866712,3.037832092
14.00856058,2.293613609,-2.089118936,0.142627623,3.105708286
14.01855358,1.842438356,-2.840662149,0.425334726,3.412455153
14.02854758,1.230467012,-3.91011029,0.660038381,4.151946798
14.03854158,0.750293224,-4.828188052,0.749483165,4.943284819
14.04853558,0.177865503,-5.727569926,0.643948013,5.766399434
14.05852858,-0.482000166,-6.577348115,0.402346873,6.607247188
14.06852258,-1.193540091,-7.407311261,0.265486979,7.507548295
14.07851658,-1.969682832,-8.313652491,0.182890417,8.545754332
14.08851058,-2.549316443,-9.197196597,0.086294415,9.544364111
14.09850458,-3.007874975,-10.02815611,-0.134871913,10.47040674
14.10849758,-3.419451421,-10.67044351,-0.385765375,11.21159345
14.11849158,-3.596120364,-11.0885896,-0.644287151,11.6749307
14.12848558,-3.697317833,-11.53322708,-0.986538717,12.15149146
14.13847958,-3.798664114,-12.19054183,-0.715857071,12.78872982
14.14847358,-4.069999186,-12.95534126,-1.091726618,13.62342202
14.15846658,-4.089160804,-13.10622281,-2.058285398,13.88275374
14.16846058,-3.888703926,-12.67845221,-1.562068459,13.35309801
14.17845458,-3.846152568,-12.08190991,-0.848809891,12.70771085
14.18844858,-4.025228518,-11.5402145,-0.507107964,12.23258655
14.19844258,-4.041092014,-10.6850826,-0.304579106,11.4277812
14.20843558,-4.002120906,-9.564154403,0.249689009,10.37074567
14.21842958,-3.284345949,-8.150249711,0.869155862,8.830001731
14.22842358,-2.223976194,-6.071837611,1.093279638,6.558089848
14.23841758,-1.684063158,-3.410465128,0.482036345,3.834018798
14.24841158,-1.089028274,1.454983721,-1.293917488,2.230960034
14.25840458,-1.0738394,12.43081093,-5.865181807,13.78689773
14.26839858,0.268565246,31.30198843,-13.35455172,34.03278799
14.27839258,2.550851921,43.32768087,-8.481199193,44.22358551
14.28838658,-0.905343549,26.62451061,10.16537506,28.51348912
14.29838058,-0.483032053,9.800054471,2.120123212,10.03839181
14.30837358,2.937971219,6.008826846,-4.742842677,8.199526304
14.31836758,4.236352764,8.882013547,-4.023677251,10.63140762
14.32836158,4.549000461,13.55995155,-3.165517663,14.64876081
14.33835558,5.283318946,16.86373949,-3.842956188,18.08500707
14.34834954,5.456675441,17.17381265,-2.669048123,18.21644767
14.35834254,4.532513652,14.60717033,-0.609127843,15.30634318
14.36833654,2.820103923,12.25172124,1.054517276,12.61624612
14.37833054,1.18595786,10.4911749,1.795802718,10.70962904
14.38832454,0.104378647,8.595281294,1.470359559,8.720763307
14.39831754,-0.589232692,6.167303932,1.228342134,6.315984274
14.40831154,-0.715177478,3.649754827,1.344235117,3.954637426
14.41830554,-0.672054994,1.233915115,0.763877914,1.599285432
14.42829954,-0.464134583,-0.966935341,-0.483012173,1.176301672
14.43829354,-0.106678722,-2.94931394,-1.170886223,3.175028758
14.44828654,0.255517111,-4.677412333,-1.364336091,4.879025323
14.45828054,0.561857783,-6.307123137,-1.351593254,6.474742524
14.46827454,0.682255754,-7.981440595,-1.116467357,8.087976647
14.47826854,0.792543085,-9.665983078,-0.585344878,9.71606824
14.48826254,0.981631441,-11.21327095,0.161213583,11.25731031
14.49825554,0.933844194,-13.1011907,0.408736162,13.14078871
14.50824954,0.924272302,-15.08167889,0.364753405,15.11437602
14.51824354,1.042721981,-17.03525937,0.529570627,17.07535581
14.52823754,1.349825348,-18.47672784,0.580432048,18.53505871
14.53823154,1.916196889,-18.96349568,0.639462029,19.07078631
14.54822454,2.182726427,-18.53163436,0.917323471,18.68227098
14.55821854,2.334353792,-16.92289927,1.382139108,17.13896251
14.56821254,1.954549069,-15.27210283,1.7085225,15.49117284
14.57820654,1.543739777,-13.78319941,1.61905016,13.96356122
14.58820054,1.430442957,-12.0638502,1.249858718,12.21248523
14.59819354,1.178244213,-10.56528835,1.013860416,10.67902104
14.60818754,1.028559147,-9.083824933,0.934622458,9.189522755
14.61818154,0.681819405,-7.75767116,0.830806314,7.831767276
14.62817554,0.26207089,-6.579713314,0.551225206,6.607961688
14.63816954,-0.338483474,-5.77185089,-0.141067586,5.783488032
14.64816254,-0.93028017,-5.113462009,-0.892130742,5.273406126
14.65815654,-1.743363865,-4.270950739,-1.323037791,4.79903811
14.66815054,-2.629747818,-3.026412987,-1.788543985,4.390175251
14.67814454,-2.472401876,-0.35148315,-2.58790982,3.59632989
14.68813854,-1.459963356,6.961943462,-5.116015488,8.762063926
14.69813154,-1.634521893,20.38505905,-5.142002853,21.08702178
14.70812554,-0.102957773,36.8826763,-4.2601445,37.12803849
14.71811954,1.543996323,38.54750022,6.152809854,39.06597966
14.72811354,0.05376047,20.20496949,8.354749646,21.86425219
14.73810754,0.74953674,11.0969441,2.058259671,11.31107451
14.74810054,1.536894149,10.76944506,-0.827466384,10.90998126
14.75809454,3.119621698,14.47619737,-2.021550851,14.94586892
14.76808854,3.891310907,18.74514778,-3.427130277,19.44911535
14.77808254,1.851979843,20.10324898,-3.932888703,20.56788911
14.78807654,0.28650772,16.96763983,-1.642605668,17.04937071
14.79806954,0.09843466,12.8565163,0.607004135,12.87121419
14.80806354,-0.810166812,9.648304607,1.873803406,9.861911136
14.81805754,-1.161458904,7.287553852,2.827214137,7.90256716
14.82805154,-1.201109458,5.405854951,3.037516265,6.316045974
14.83804554,-1.087604769,3.70317382,2.377094307,4.532875226
14.84803854,-0.67606633,1.838134221,1.580323466,2.516590025
14.85803254,-0.254478427,-0.299971519,0.58880643,0.708120889
14.86802654,0.127009929,-2.53850611,-0.192228384,2.548940279
14.87802054,0.348681456,-4.720308677,-0.991423481,4.835888055
14.88801454,0.416128577,-6.592937377,-1.811175633,6.849842584
14.89800754,0.427286088,-8.172674952,-2.103326501,8.449803053
14.90800154,0.443751774,-10.01121439,-2.066153997,10.23182884
14.91799554,0.504766154,-12.33093464,-1.985940723,12.50002794
14.92798954,0.665154987,-14.54084653,-1.728753281,14.65835041
14.93798354,1.134749846,-16.05938247,-1.264021844,16.14896819
14.94797654,1.469983875,-17.49278762,-0.479579272,17.56099279
14.95797054,1.407510762,-18.62091082,0.698432368,18.68708683
14.96796454,1.350985728,-18.83352377,1.673622808,18.95594348
14.97795854,1.339657478,-18.44544874,1.858116496,18.58714229
14.98795254,1.17120073,-17.03455537,2.027859997,17.19476676
14.99794554,0.822427765,-15.25337186,1.566021177,15.3555906
15.00793954,0.132985564,-13.83123428,1.063633085,13.87270854
15.01793354,-0.333729833,-12.29273244,0.726201965,12.31868564
15.02792754,-0.584654322,-10.80949965,0.010144919,10.82530399
15.03792154,-0.803213961,-9.333210434,-0.664982786,9.39128169
15.04791454,-0.981373652,-7.843277906,-1.128260021,7.984552162
15.05790854,-0.979437712,-6.448453263,-1.402873335,6.671574125
15.06790254,-1.063681033,-5.30318603,-1.306527593,5.564370024
15.07789654,-1.316401348,-3.853997485,-1.105772799,4.220064289
15.08788954,-1.498823366,-1.565428854,-1.205460809,2.479954585
15.09788354,-0.927835741,3.31446905,-1.909081997,3.935883422
15.10787754,0.374234227,13.78945593,-2.551151884,14.02845401
15.11787154,0.464825578,29.357132,-3.217495902,29.53657973
15.12786554,0.698207835,38.77115622,1.086727395,38.79266715
15.13785854,-0.28362665,25.58274728,7.873203371,26.76835321
15.14785254,0.971358468,11.69078498,5.488480786,12.95150231
15.15784654,2.320685925,7.29147558,1.114555317,7.732621344
15.16784054,2.810644882,9.494243923,-2.653058327,10.25081025
15.17783454,5.039592964,15.70183342,-4.525791693,17.10052222
15.18782754,4.856640603,20.4965444,-5.456932719,21.75944405
15.19782154,2.264411591,20.32026255,-5.625807323,21.20590337
15.20781554,0.570673483,15.66470711,-3.2633217,16.01118314
15.21780954,0.408543642,11.83126083,-0.86354714,11.8697664
15.22780354,-0.615686373,9.363789618,0.129050388,9.384896362
15.23779654,-1.413205803,7.621805257,0.669765882,7.780594602
15.24779054,-1.822686462,6.011167486,1.03426486,6.366005363
15.25778454,-1.97077363,4.230796155,1.100834241,4.795354088
15.26777854,-1.566603705,2.297979725,0.888876182,2.919770343
15.27777254,-0.857638163,0.104437119,0.844463071,1.208125907
15.28776554,0.015056873,-1.794401726,0.10718648,1.797663262
15.29775954,0.447465048,-3.541605311,-0.615660353,3.622461983
15.30775354,0.244346956,-5.354371971,-1.097393739,5.471131296
15.31774754,0.165713161,-7.268303649,-1.230170558,7.373534999
15.32774154,0.27189085,-9.100139834,-1.488616905,9.225098911
15.33773454,0.985371685,-10.75338276,-1.609851905,10.91777547
15.34772854,1.46760669,-13.06466314,-1.167390758,13.19856407
15.35772254,1.489957087,-15.75249018,-0.665563999,15.83678928
15.36771654,1.229431909,-18.09207811,-0.496077703,18.14058671
15.37771054,1.196663893,-19.29246705,0.327068722,19.33231138
15.38770354,0.951053134,-19.38554536,0.708442801,19.42178577
15.39769754,0.670815822,-18.69653637,1.125317848,18.74237995
15.40769154,0.516485728,-17.42812327,1.65465561,17.51411212
15.41768554,0.275119025,-15.71685257,1.534990003,15.79402861
15.42767954,-0.164223729,-14.07985439,1.414784113,14.15170955
15.43767254,-0.62233992,-12.6715408,1.132479372,12.73725884
15.44766654,-0.94146772,-11.34889477,0.383034652,11.3943183
15.45766054,-1.029027801,-9.897364419,-0.157179004,9.951955883
15.46765454,-1.155856394,-8.472712544,-0.409235002,8.560977464
15.47764854,-1.431192131,-7.313415502,-0.632838376,7.47895993
15.48764154,-1.608058272,-6.311801494,-1.097038229,6.605163312
15.49763554,-1.852688818,-5.351252482,-1.530558983,5.866086411
15.50762954,-2.205485837,-3.640572944,-1.610000424,4.550828551
15.51762354,-2.805627971,-0.482603452,-1.992031767,3.474571192
15.52761754,-2.543385319,6.017334545,-3.534758806,7.42776169
15.53761054,-0.329641314,17.65294286,-3.450042007,17.98993732
15.54760454,2.930416324,33.5731499,-0.939106176,33.71387926
15.55759854,4.555151147,37.77438838,6.074712102,38.52993572
15.56759254,4.13794354,23.94744712,4.948944165,24.8011058
15.57758654,6.233116683,14.95510656,2.451563276,16.38649194
15.58757954,7.403169678,13.16524461,-0.041135089,15.10404843
15.59757354,7.252200417,14.91613954,-1.739538471,16.67667904
15.60756754,6.392372618,16.67919785,-3.934446402,18.29037827
15.61756154,4.334330756,17.11999839,-6.227582878,18.72601283
15.62755554,2.560277633,15.90143046,-4.854481226,16.82190537
15.63754854,0.697010179,13.30307634,-1.476122575,13.40285795
15.64754254,-0.961911121,10.47199603,0.529294639,10.52939346
15.65753654,-0.973305737,8.147878665,0.455056123,8.21841389
15.66753054,-0.929034713,6.048017809,0.387257621,6.131198364
15.67752454,-0.998875903,4.04541486,0.926855017,4.268746266
15.68751754,-0.650386966,2.212939575,1.529342762,2.767488763
15.69751154,-0.360686375,0.249784282,0.887586871,0.990099642
15.70750554,-0.162309205,-1.857396119,-0.114797234,1.868005092
15.71749954,0.221917768,-4.043251975,-0.400548306,4.069099775
15.72749354,0.764105078,-5.871403245,-0.79840046,5.974502149
15.73748654,0.807883401,-7.571896348,-1.120969713,7.696938547
15.74748054,0.772113059,-9.24699324,-0.772699023,9.311289187
15.75747454,0.610352689,-11.12430673,-0.223979971,11.14328935
15.76746854,0.470387742,-13.38494789,-0.166074373,13.39424038
15.77746254,0.38608551,-15.32721283,0.161233463,15.33292247
15.78745554,0.227692112,-16.51300946,0.694656236,16.52918245
15.79744954,0.224779907,-17.14113841,1.186816378,17.18364586
15.80744354,0.383678796,-17.18462299,1.258481022,17.23491372
15.81743754,0.316089624,-16.3539956,1.087068726,16.3931328
15.82743154,0.1290729,-14.96015972,0.658678318,14.97520937
15.83742454,0.103781609,-13.67114571,0.184819998,13.67278881
15.84741854,0.126854174,-12.59687887,-0.106813427,12.59797041
15.85741254,0.276731394,-11.39898085,-0.353887488,11.40782982
15.86740654,0.412115487,-10.15825081,-0.763789036,10.19525735
15.87740054,0.624765052,-9.059635001,-0.810979575,9.117291572
15.88739354,0.704658045,-8.01231097,-0.257228409,8.047349656
15.89738754,0.721689888,-6.556356027,0.673819098,6.63028452
15.90738154,0.680812222,-5.030433885,1.98123196,5.449224756
15.91737554,0.112335684,-3.759667279,3.027308196,4.828282538
15.92736954,-0.611218662,-2.669755052,3.614142945,4.53466752
15.93736254,-0.547696119,-0.099036046,3.984297423,4.022984605
15.94735654,-1.835952478,4.382020354,4.102997071,6.277532067
15.95735054,-4.980912062,9.915930498,3.45438181,11.62187232
15.96734454,-6.483485686,14.62836531,-0.020237286,16.00078335
15.97733854,-5.162238312,14.97331595,-4.814820732,16.55389361
15.98733154,-3.84619613,10.53334502,-6.110031624,12.77016321
15.99732554,-2.871605029,6.31175881,-5.654121881,8.947262651
16.00731954,-2.119367606,4.381068428,-5.023494995,6.99435355
16.01731354,-0.233764373,4.09653005,-3.566430835,5.436509278
16.02730754,1.961939072,5.712006392,-3.583585396,7.022699355
16.03730054,3.055684733,8.543462684,-4.583372734,10.16539569
16.04729454,3.664802052,12.23816389,-5.721043264,13.99763428
16.05728854,4.287591915,15.48423396,-6.694260854,17.40569086
16.06728254,5.205992442,16.83869703,-6.234072118,18.69512584
16.07727654,5.074162288,15.63446881,-4.540225252,17.05278228
16.08726954,4.893780655,13.36427213,-2.514317933,14.45249644
16.09726354,4.766682944,11.70916395,-1.25287822,12.70415249
16.10725754,3.877858218,10.84173769,-0.870109105,11.54721397
16.11725154,2.246592201,9.917345524,-0.654920897,10.18969284
16.12724554,0.431260075,8.505489112,-0.467012436,8.52921045
16.13723854,-1.173667598,6.657104137,-0.292374743,6.766092972
16.14723254,-2.258671087,4.441273699,-0.098264725,4.983589379
16.15722654,-2.683920224,2.344280317,-0.077677921,3.564423072
16.16722054,-2.533921893,0.613553601,0.050380706,2.607632336
16.17721454,-2.472085249,-1.165098065,0.153113983,2.737170596
16.18720754,-2.512297136,-3.000616826,0.046698185,3.913760206
16.19720154,-2.458898023,-4.762812672,-0.253165727,5.366065311
16.20719554,-2.075197885,-6.276053957,-0.539155383,6.632193307
16.21718954,-1.625987297,-7.724601647,-0.672841444,7.922500925
16.22718354,-1.190429299,-8.893155416,-0.743659996,9.003241936
16.23717654,-0.634591079,-9.880830832,-0.869071662,9.939255974
16.24717054,-0.226690777,-10.97636048,-0.892693244,11.01493438
16.25716454,0.172903921,-12.03702903,-0.510525661,12.04909125
16.26715854,0.655390721,-12.80243423,0.243468704,12.82151069
16.27715254,1.339240133,-13.01385318,1.052539748,13.12485347
16.28714554,1.935732729,-13.02896355,1.532858108,13.26086748
16.29713954,2.503434511,-12.8948296,1.918802408,13.27499971
16.30713354,3.04585264,-12.52470435,2.416228552,13.11425171
16.31712754,2.987900301,-12.22384523,2.837785903,12.89972748
16.32712154,2.73636624,-11.60183129,2.583700994,12.19695455
16.33711554,2.204072565,-10.79861214,2.375912,11.27443648
16.34710892,1.627448662,-9.850939865,1.873946078,10.15880304
16.35710292,0.913002817,-8.852834187,1.330675424,8.99871904
16.36709692,0.286731083,-7.868895727,0.872963569,7.922360763
16.37709092,0.038644321,-6.571203861,0.776552485,6.617042189
16.38708392,-0.386324369,-5.543830529,0.086977187,5.557955423
16.39707792,-0.654648417,-4.589501785,-1.026686869,4.74828149
16.40707192,-0.863319903,-3.243938765,-2.088901273,3.95372843
16.41706592,-0.855029135,-1.471697402,-3.183193796,3.609666301
16.42705992,-0.580087793,1.007673478,-4.605698572,4.750196525
16.43705292,-0.089409336,5.507254441,-6.62923046,8.618848067
16.44704692,1.334173521,13.66537918,-6.084720197,15.01820319
16.45704092,2.543863329,24.52587474,-1.47625019,24.7016009
16.46703492,1.847734326,29.9136045,4.749642988,30.3446365
16.47702892,-0.156038505,22.64211236,5.186860353,23.22914377
16.48702292,0.822742565,15.23803578,3.213164284,15.59484096
16.49701592,2.130998449,11.75321336,1.235779938,12.00859404
16.50700992,3.026261544,10.19191674,-1.033787727,10.68186046
16.51700392,4.165007377,9.92539714,-3.013505259,11.17774614
16.52699792,4.857467984,10.1892317,-3.76921929,11.90052317
16.53699092,4.626688322,10.60445417,-3.837391977,12.18959681
16.54698492,3.65400166,10.4577908,-2.114399811,11.27775701
16.55697892,2.257184286,9.138087679,-0.875089617,9.453322652
16.56697292,1.037890938,7.175738717,-0.51649501,7.268783311
16.57696692,0.190549941,5.289794152,-0.019547242,5.293261145
16.58696092,-0.454455906,3.655269336,0.621915777,3.73554592
16.59695392,-1.09020298,1.771673598,0.735812594,2.206533492
16.60694792,-1.528726466,-0.30140701,0.228773482,1.574861295
16.61694192,-1.349937615,-2.184625018,0.2374847,2.579014737
16.62693592,-0.930561859,-3.722246853,0.511405667,3.870736721
16.63692992,-0.713182847,-5.207080024,0.646361743,5.29528995
16.64692292,-0.682690129,-6.655340032,0.830848341,6.741656007
16.65691692,-0.580862037,-7.85695045,0.779886348,7.916899254
16.66691092,-0.39084127,-9.040243295,0.778451441,9.082111119
16.67690492,-0.259343822,-10.05291439,0.835410338,10.09089973
16.68689892,-0.188459561,-11.01112451,0.641690987,11.03141638
16.69689192,-0.106677772,-11.75784085,0.680166836,11.77798066
16.70688592,-0.154602428,-12.23312008,0.662192495,12.25200505
16.71687992,-0.256561607,-12.63483081,0.478812227,12.64650286
16.72687392,-0.376229443,-13.00402284,0.404903312,13.01576372
16.73686792,-0.414812003,-13.23281269,0.403056761,13.2454466
16.74686092,-0.636194532,-13.17217239,0.462680746,13.19564104
16.75685492,-0.888073944,-12.73953807,0.412821611,12.77712516
16.76684892,-1.070190957,-12.1478782,0.25273296,12.19754596
16.77684292,-1.293369604,-11.48522261,0.089053021,11.55816048
16.78683692,-1.393706947,-10.63784879,-0.001575313,10.72875801
16.79682992,-1.40678176,-9.631878608,-0.040292067,9.734153476
16.80682392,-1.503303064,-8.569212652,-0.09859575,8.700634845
16.81681792,-1.603607956,-7.414227932,-0.305532074,7.59181692
16.82681192,-1.800065339,-5.796384637,-0.677272464,6.107127645
16.83680592,-1.853540026,-3.457936918,-0.793358333,4.002793499
16.84679892,-1.350529207,0.205102199,-1.213511183,1.827185114
16.85679292,-0.210438075,6.693605965,-1.637000527,6.894085562
16.86678692,2.017486597,18.87645519,0.974249112,19.00894458
16.87678092,6.154893801,34.7002779,2.900996643,35.36110555
16.88677492,6.193630435,36.40620073,7.254770268,37.63514582
16.89676792,3.203142157,20.92962662,7.472559171,22.45325212
16.90676192,3.613919289,10.88017144,2.722751583,11.78354443
16.91675592,3.255071864,7.629362783,0.388451586,8.303828271
16.92674992,2.457935572,6.936712142,-0.349157054,7.367586665
16.93674392,2.822611209,6.136732349,-3.557928983,7.634492558
16.94673692,2.48329787,5.421569343,-5.320610733,7.991813375
16.95673092,1.769866224,6.141087356,-4.692589366,7.928794065
16.96672492,0.679639271,7.40756386,-3.353186388,8.159520258
16.97671892,-0.294251918,8.026706815,-1.103963671,8.107610145
16.98671292,-1.090451486,7.808084684,0.174001407,7.885781342
16.99670592,-1.652657032,6.74107717,0.624853345,6.96877596
17.00669992,-1.871429875,5.040465953,0.483032601,5.398320785
17.01669392,-1.503725087,2.8456469,0.146263404,3.221845496
17.02668792,-0.893200636,0.498265804,-0.129804661,1.030982754
17.03668192,-0.24743107,-1.690911856,-0.439480237,1.764524842
17.04667492,0.346903756,-3.50191792,-0.65355148,3.579231882
17.05666892,0.628411376,-5.128391705,-0.737830907,5.219166292
17.06666292,0.718919111,-6.732956557,-0.713467898,6.808713912
17.07665692,0.801861134,-8.230855333,-0.553311492,8.288311915
17.08665092,0.924992386,-9.647784789,-0.240856168,9.695017996
17.09664392,0.973035084,-10.63489478,0.15426011,10.68042979
17.10663792,0.834685576,-11.1579212,0.536980292,11.20197542
17.11663192,0.791189016,-11.20153441,0.934910214,11.26829226
17.12662592,0.772230077,-11.03548285,1.054710234,11.11263401
17.13661992,0.814668656,-10.55031597,1.151426617,10.64418317
17.14661292,0.70316854,-10.08861515,1.319217221,10.19877128
17.15660692,0.503964793,-9.657388841,1.279352074,9.754787618
17.16660092,0.402530512,-9.309338007,1.163758467,9.390428037
17.17659492,0.397340523,-8.926802049,1.099522126,9.003034112
17.18658892,0.096700229,-8.663284997,1.113970523,8.735146719
17.19658292,-0.449020627,-8.264128329,0.8511278,8.319967253
17.20657592,-1.03238308,-7.612409951,0.990208502,7.745651229
17.21656992,-1.261102037,-6.813098495,1.30418169,7.050502062
17.22656392,-1.000777856,-5.041076987,1.996382096,5.513579144
17.23655792,-1.106870906,-3.704123992,2.477831308,4.591878237
17.24655192,-0.145617158,-1.208220111,2.594597865,2.865822443
17.25654492,-0.872706876,3.166302359,1.14778519,3.479152018
17.26653892,-1.314649668,8.389169281,-0.831468072,8.532162922
17.27653292,-0.320634409,13.39972029,-2.886252304,13.71079001
17.28652692,0.18543962,15.41390833,-4.816800599,16.15006272
17.29652092,-0.94778761,16.23134323,-5.940160654,17.31012169
17.30651392,-3.578307699,15.29816387,-5.090781244,16.51527043
17.31650792,-4.809627235,10.68917565,-2.038863287,11.89739273
17.32650192,-3.672390568,5.5852639,-1.857905996,6.937826749
17.33649592,-1.884925395,4.45481702,-3.48787817,5.963525178
17.34648992,-0.521197707,5.112096099,-4.383464617,6.754253151
17.35648408,1.000345893,5.35324112,-4.501881258,7.065749589
17.36647808,2.569243169,5.071352116,-3.588079566,6.722643655
17.37647208,3.378739305,4.494192755,-2.567060988,6.180893942
17.38646608,2.784267508,4.420794995,-1.871360439,5.549555283
17.39646008,1.579031962,4.917018952,-1.188992565,5.299445313
17.40645308,0.127294177,5.486983899,-1.571061476,5.708890459
17.41644708,-1.264374869,5.942205425,-2.558948561,6.592167084
17.42644108,-2.481081775,6.047945888,-3.000054324,7.1926172
17.43643508,-2.870091185,5.801192218,-3.312907258,7.270942791
17.44642908,-2.504520339,4.981511402,-3.12910325,6.393697297
17.45642208,-2.046441717,3.539572234,-2.241649257,4.662776715
17.46641608,-1.680719136,1.68004656,-1.381558918,2.74883217
17.47641008,-1.117618162,-0.280871589,-0.813938193,1.410834713
17.48640408,-0.543707806,-2.229190741,-0.309146896,2.315271332
17.49639808,-0.270545552,-4.14090457,-0.073801144,4.150389399
17.50639108,0.189930282,-5.636191978,0.356715238,5.650661845
17.51638508,0.579331748,-6.885352539,0.666280868,6.941731416
17.52637908,1.062917094,-8.091685753,1.039312177,8.227110117
17.53637308,1.427797823,-9.417090497,0.934782672,9.570476409
17.54636708,2.061782618,-9.697603067,0.748033129,9.942535208
17.55636008,2.06069299,-10.50716703,1.382499297,10.79621781
17.56635408,2.268659447,-11.37528677,1.921711982,11.75742071
17.57634808,2.599120979,-11.56318938,1.910373062,12.00467841
17.58634208,2.669750959,-11.87422266,2.029857405,12.3387623
17.59633608,2.460108397,-12.42438601,2.021223553,12.82586628
17.60633008,1.74181216,-13.29344013,1.735512078,13.51892978
17.61632308,0.815027164,-13.69637293,1.188368229,13.77196863
17.62631708,-0.026363926,-12.90439798,0.654773767,12.92102592
17.63631108,-0.413087294,-11.57069019,0.469274286,11.58756795
17.64630508,-0.779486618,-9.961931713,0.315065521,9.997347104
17.65629908,-0.837767497,-8.657676347,0.028474917,8.698162159
17.66629208,-0.838406086,-7.384671426,-0.389312296,7.442302124
17.67628608,-0.942347215,-6.03500483,-1.48274747,6.285526361
17.68628008,-0.392822891,-4.204288972,-2.379193165,4.846742793
17.69627408,-0.161111549,-1.365590318,-3.982756097,4.213447517
17.70626808,0.370221722,5.160434446,-8.77735131,10.18867233
17.71626108,5.699507968,21.3941575,-6.590954586,23.10054217
17.72625508,9.148405091,41.39442766,1.617658084,42.4241532
17.73624908,3.624011291,36.53602529,7.977088512,37.57191162
17.74624308,0.605191498,17.66947879,5.780759708,18.60091181
17.75623708,0.500831416,5.659334089,2.809449127,6.338130547
17.76623008,1.067974935,1.83103687,-0.605539115,2.204528091
17.77622408,2.952925181,1.42584763,-2.814375114,4.321286367
17.78621808,3.525612007,1.006319847,-4.833943466,6.067093957
17.79621208,4.27537942,2.257450334,-4.810174534,6.820024212
17.80620608,4.579458023,5.24442853,-5.507849103,8.877604864
17.81619908,4.707673429,9.058154486,-5.959616679,11.82071837
17.82619308,5.41940295,11.14155602,-3.500764264,12.87476404
17.83618708,5.943350894,10.65092551,-0.243109978,12.19937443
17.84618108,5.497143436,8.904125962,0.380954286,10.47125452
17.85617508,4.753060101,7.18783953,0.718780386,8.647153443
17.86616808,3.829050047,5.2915413,1.389645471,6.67781013
17.87616208,2.973907329,3.408747216,1.805860076,4.870812355
17.88615608,2.37641793,1.680849967,1.92522382,3.489857526
17.89615008,1.878112365,0.067835888,1.631535573,2.488737851
17.90614408,1.342712795,-1.417912374,1.114634839,2.248502607
17.91613708,0.651485658,-2.918825389,0.575128623,3.045447117
17.92613108,0.036139155,-4.372709833,-0.157169648,4.37568276
17.93612508,-0.401156562,-5.538465709,-0.808765965,5.611562294
17.94611908,-0.830744041,-6.237027301,-0.798199827,6.342536415
17.95611308,-1.514291591,-6.699430962,-0.201202837,6.871385363
17.96610608,-1.990530495,-7.038309853,0.512715443,7.332318485
17.97610008,-2.368610874,-8.438646081,0.549539819,8.781973535
17.98609408,-2.468336014,-9.99881361,0.744326067,10.32584028
17.99608808,-2.290781072,-10.93748585,1.09646754,11.22846898
18.00608208,-2.27870891,-11.6645801,1.002179945,11.92725064
18.01607508,-2.620106928,-12.37890754,0.978616982,12.69094178
18.02606908,-3.245415187,-13.20625347,0.963971972,13.6333082
18.03606308,-3.956412344,-14.01205943,0.943590918,14.59045482
18.04605708,-4.227529023,-14.50761797,0.712135903,15.12779291
18.05605108,-4.972428921,-14.50148073,-0.284417961,15.3329347
18.06604508,-5.530807611,-13.81886041,-1.032020699,14.92031509
18.07603808,-5.298280216,-11.9942964,-0.448394902,13.12006012
18.08603208,-4.946397702,-10.00845801,0.246913884,11.16678326
18.09602608,-3.958584293,-8.017562939,1.553296466,9.075485386
18.10602008,-2.407187441,-5.75458757,2.449425534,6.70145618
18.11601408,-0.075017876,-1.292333477,2.804048638,3.088436864
18.12600708,1.134765926,7.095364645,2.612678626,7.645782023
18.13600108,1.212549974,18.59517138,-0.137673862,18.63517185
18.14599508,0.545351385,30.99088849,-6.049893011,31.58059187
18.15598908,0.803925055,35.78439378,-9.412137905,37.01023472
18.16598308,-1.651630846,23.40765088,-1.814788628,23.53591855
18.17597608,-2.346560585,6.554375575,4.575135469,8.33054922
18.18597008,1.062478114,-1.779708257,-0.540114034,2.141948738
18.19596408,3.090799602,-4.01651909,-5.673739289,7.607679364
18.20595808,3.426059067,-1.969574951,-5.742047632,6.970524889
18.21595208,2.284845563,0.640755433,-4.949218984,5.488702517
18.22594508,1.619846405,3.8356957,-4.224137346,5.931256207
18.23593908,0.80782047,7.362106436,-3.789557076,8.319490845
18.24593308,0.521927878,10.83406849,-3.332164771,11.34692781
18.25592708,-0.069833443,12.91154445,-4.000135192,13.51717198
18.26592108,-0.792534972,12.92651215,-3.921191933,13.53139217
18.27591408,-0.666742213,11.31606967,-2.521200106,11.61268393
18.28590808,-0.117218255,9.045653139,-1.238471996,9.130793707
18.29590208,0.038813087,6.666563762,-0.428789041,6.680451998
18.30589608,0.097457882,4.422972499,-0.2181583,4.429421724
18.31589008,0.290534259,2.340976641,-0.378566283,2.389119967
18.32588408,0.810798896,0.6369296,-0.363806741,1.093356991
18.33587708,1.180934225,-0.988340244,-0.383707155,1.587026547
18.34587108,1.445144172,-2.532955933,-0.618808274,2.981145941
18.35586379,1.63106268,-3.878306115,-0.72112892,4.268682549
18.36585779,1.452834869,-5.332305749,-0.711125431,5.572244892
18.37585179,1.371098688,-6.845594981,-0.214055967,6.984833728
18.38584479,1.421065631,-8.066780707,-0.219177032,8.193925621
18.39583879,1.541298272,-9.544941037,-0.382671101,9.676153003
18.40583279,1.900626338,-10.92177789,-0.396786207,11.09301817
18.41582679,1.990460328,-12.49085716,-0.274283458,12.65142981
18.42582079,2.215354767,-13.93890608,0.216607692,14.11551694
18.43581379,2.604482876,-15.45725257,0.979711508,15.7057258
18.44580779,3.503131509,-16.6827284,1.79968527,17.14130171
18.45580179,4.44709811,-17.65156409,2.465910004,18.36940686
18.46579579,4.77558533,-17.44014046,2.74209505,18.28889827
18.47578979,3.944930752,-16.05843054,2.670612838,16.75015949
18.48578279,2.637882756,-13.43652501,2.96877055,14.01114657
18.49577679,0.547359611,-11.3020118,3.086768532,11.72873451
18.50577079,-0.802570109,-9.483059369,2.731584095,9.901216362
18.51576479,-1.649096078,-7.954290218,2.308232818,8.445009739
18.52575879,-2.074735955,-6.413296294,2.058866612,7.047966399
18.53575279,-2.84304752,-5.072406954,1.09798884,5.917584896
18.54574579,-4.034871161,-3.554908896,-0.833215367,5.441673492
18.55573979,-5.026144953,-0.661556903,-3.652146338,6.248036771
18.56573379,-5.702140385,3.962438777,-6.902871966,9.791065694
18.57572779,-6.126077553,11.23707379,-8.616939965,15.42894384
18.58572179,-4.585482994,22.3030908,-5.655457385,23.4614303
18.59571479,-3.521413706,31.02096189,1.19833203,31.24318215
18.60570879,-3.061407988,26.90850987,7.165023694,28.01388382
18.61570279,-1.395510521,16.25136059,3.381581344,16.65800898
18.62569679,-0.072737316,8.368230987,-0.4352967,8.379860606
18.63569079,1.764840834,5.644782708,-1.860836474,6.2000764
18.64568379,3.940394774,5.339242301,-0.941195898,6.702243583
18.65567779,4.398266843,4.680938205,-1.53341564,6.603582151
18.66567179,5.184946559,4.947484115,-3.412821848,7.937797103
18.67566579,6.082422826,8.080916936,-3.676407605,10.76164759
18.68565979,7.849789365,12.38006178,-2.244746966,14.82983519
18.69565279,9.234376118,14.25956739,-0.513071246,16.99624095
18.70564679,9.863484482,12.38688665,-0.242879013,15.83610676
18.71564079,9.181278137,9.356826169,0.357278325,13.11387479
18.72563479,7.566979424,6.901679134,1.321920096,10.32665605
18.73562879,5.902101127,4.914283624,1.779051615,7.883527504
18.74562179,4.171239047,3.231564887,1.906251944,5.61035144
18.75561579,2.626935307,1.824051787,1.81453252,3.677020845
18.76560979,1.537036821,0.457829969,1.415788665,2.1392868
18.77560379,0.651285684,-1.20333944,0.52582724,1.465842125
18.78559779,0.393364416,-2.674998835,-0.693726237,2.791345629
18.79559079,0.253800003,-3.446114432,-1.310363367,3.695561023
18.80558479,-0.710982832,-4.041827009,-0.842011918,4.189373011
18.81557879,-1.465027191,-4.68103176,-0.388343997,4.920281909
18.82557279,-1.886521685,-5.802364,-0.220627141,6.105331145
18.83556679,-1.813292617,-6.573081402,-0.483530674,6.83573194
18.84556079,-1.816732973,-7.701672961,-0.404357109,7.923369849
18.85555379,-2.051866179,-9.317640468,-0.245733842,9.544053847
18.86554779,-2.328471493,-10.74989197,0.176389446,11.00059408
18.87554179,-3.008772522,-11.66912689,0.636244818,12.06756156
18.88553579,-4.062639003,-12.30817377,0.925275099,12.99431842
18.89552979,-4.950178512,-13.02910973,1.056774448,13.97779453
18.90552279,-5.949595721,-14.26745411,0.493509752,15.46614005
18.91551679,-6.283982781,-15.0232196,-0.453636273,16.29083646
18.92551079,-6.316859921,-14.47902158,-0.111085403,15.79737716
18.93550479,-7.133012527,-13.9668967,0.393802958,15.6878664
18.94549879,-7.526020263,-13.0501831,0.38653136,15.06976
18.95549179,-7.061839049,-11.34763178,0.627296312,13.38027721
18.96548579,-6.568740429,-9.849005606,0.297639795,11.84229081
18.97547979,-5.046295627,-8.100906812,1.455886531,9.65450135
18.98547379,-3.380412486,-5.351312124,2.107454635,6.671213912
18.99546779,-2.022544731,-1.890503054,2.033298053,3.434965787
19.00546079,-1.783705706,3.580017425,2.150753267,4.541351167
19.01545479,-2.223140042,10.89927897,0.057111802,11.12384356
19.02544879,-0.402746274,19.81220266,-6.968388848,21.00580924
19.03544279,3.133350375,26.38199851,-11.83628359,29.08479567
19.04543679,3.791722884,24.89850142,-9.230365512,26.82372426
19.05543079,1.803787091,13.28577677,-0.509938308,13.41736
19.06542379,1.348484874,3.327150491,1.000007778,3.726708655
19.07541779,3.379540081,-0.545247012,-1.330000656,3.672531444
19.08541179,5.037821842,-0.205809127,-2.816581853,5.775390865
19.09540579,5.515987258,2.47119121,-3.335083993,6.903309834
19.10539979,5.738941006,5.292425984,-3.35215874,8.496009939
19.11539279,5.82206327,8.095250216,-3.63584547,10.61361715
19.12538679,5.522679981,10.95015092,-4.356085614,13.0146564
19.13538079,4.605318796,13.30407505,-5.025918081,14.94882024
19.14537479,3.14160986,14.52183138,-4.321159025,15.4733873
19.15536879,1.152591747,13.59144816,-2.31236563,13.83484606
19.16536179,-0.605428749,11.3882863,-0.686981181,11.42504056
19.17535579,-1.824328214,9.003040971,-0.367520893,9.193366726
19.18534979,-2.601118388,6.665715916,-0.581435576,7.178833671
19.19534379,-2.906869002,4.501249174,-0.592902989,5.390980011
19.20533779,-2.817079743,2.527641399,-0.493541108,3.816869417
19.21533079,-2.647541479,0.690626335,-0.573937984,2.795683356
19.22532479,-2.324501818,-1.017250047,-0.575392917,2.601765433
19.23531879,-2.048324667,-2.7207685,-0.459378312,3.436458003
19.24531279,-1.821972078,-4.406006802,-0.107427531,4.769068973
19.25530679,-1.673753932,-6.072488991,0.179947916,6.301504267
19.26529979,-1.264056196,-7.321387596,-0.081054176,7.430149674
