Time (s),Linear Acceleration x (m/s^2),Linear Acceleration y (m/s^2),Linear Acceleration z (m/s^2),Absolute acceleration (m/s^2)
0.0192223333287984,-0.3886106300354,-0.46692735940218,-1.39363648831844,1.52028354010276
0.0292073334567249,-0.0749969726800919,-0.804570149481297,-0.623199167847633,1.02045816874261
0.0391933333594352,0.229008393734694,-0.814458960592747,-0.162402906417847,0.86148879673721
0.0491793334949762,0.422831021100283,-0.870909442305565,-0.299647582769394,1.01343870212324
0.0591653333976865,0.656216932833195,-0.758075429499149,-1.34872227072716,1.6805804899804
0.0691513335332274,0.768046832531691,-0.229054732918739,-2.84156086564064,2.9524278417558
0.0791373334359378,0.522869279533625,0.323710629343986,-3.48434762120247,3.53819999440529
0.0891233333386481,0.721203618496656,0.305235474407673,-3.33723226010799,3.42788892936674
0.099109333474189,0.691024238169193,-0.287033092081547,-3.2045209300518,3.29072285141537
0.109095333376899,0.529300778210163,-0.813126087784767,-3.30661156117916,3.44601412721622
0.11908133351244,0.462938096523285,-0.995063372254372,-3.47039733409882,3.63979675978412
0.129067333415151,0.0650470581650734,-1.07219574809074,-3.01483374595642,3.20047767649728
0.139053333317861,0.700054678022861,-0.783584784865379,-2.39404012262821,2.61448078517474
0.149039333453402,1.80482146382332,-0.506969384551048,-1.580766685009,2.45218714326288
0.159025333356112,1.98480811715126,-0.0243355268239975,-0.852517610192299,2.16028742427097
0.169011333491653,2.03097714722157,0.713407379686832,-0.930322415828705,2.34506248516351
0.178997333394364,2.20693828493357,1.19187451153994,-1.34070807695389,2.84405337368578
0.18898233352229,1.67786905646324,1.15291159003973,-0.281814744472504,2.05520540464619
0.198968333425,1.47945314884186,1.13927179008722,1.08734997689724,2.16079888086908
0.208954333327711,1.32596139907837,1.00780211627483,2.14807056427002,2.71809600391473
0.218940333463252,1.11838231980801,0.578238318711519,2.34069422006607,2.65781639665651
0.228926333365962,0.782352484166622,0.213614282906055,2.1807869052887,2.32670109761048
0.238912333501503,0.312563497424126,-0.0391444775462151,1.65522454440594,1.68493220114289
0.248898333404213,-0.462437867224216,-0.229761222749948,0.562645402550697,0.763681117701538
0.258884333306923,-0.795738514959812,-0.206844376623631,0.241143266558647,0.856816465375077
0.268870333442464,-1.05692574441433,-0.151344067454338,-0.487440853714943,1.17371020351267
0.278856333345175,-1.28707741498947,-0.392313233166933,-1.16267322421074,1.77828202807948
0.288842333480716,-1.56594545513392,-0.877291093468666,-1.53544608592987,2.36207948933379
0.298828333383426,-2.2006048732996,-1.4460854279995,-1.78138874709606,3.17917768326071
0.308814333518967,-2.31154351115227,-2.41419006630778,-2.31912910401821,4.06815767655503
0.318800333421677,-1.98580155909061,-3.76380710721016,-2.68968470156193,5.03428798999309
0.328786333324388,-1.67620727777481,-5.09080170929432,-2.8399025952816,6.06555682786885
0.338772333459929,-1.92605587899685,-6.02912662446499,-3.06519990742207,7.03246113215787
0.348757333355024,-2.59253145933151,-7.13935441732407,-3.54012421131134,8.37998092451892
0.358743333490565,-3.36909198403358,-8.60829778075218,-3.64251948237419,9.93587035233743
0.368729333393276,-4.1454548728466,-9.86819149017334,-3.55969601154327,11.2799572288256
0.378715333528817,-5.168931620121,-10.5759794032574,-3.44195589244366,12.2644304717805
0.388701333431527,-5.15254012048244,-10.9568015420437,-3.19539284169674,12.5224081205525
0.398687333334237,-4.45377270698547,-11.2557158839703,-2.32078737437725,12.3253107637584
0.408673333469778,-4.10599201440811,-11.6183613681793,-1.41475019931793,12.4035079485787
0.418659333372489,-3.23115733623505,-11.6807453119755,-1.38146141588688,12.1978942616472
0.42864533350803,-1.29785383343697,-10.770131521225,-1.88457807004452,11.0105309617449
0.43863133341074,-0.00309843957424164,-9.06663119494915,-1.34665732651949,9.16609495808447
0.44861733331345,1.31589483261108,-7.32669920682907,-0.341023942530155,7.45173790516153
0.458603333448991,2.95396306157112,-6.40215208590031,1.19784071803093,7.15180197474015
0.468589333351702,4.9026394790411,-5.57274676501751,2.84766623586416,7.94987945564876
0.478575333487242,6.14753917336464,-4.23023891508579,3.66025291800499,8.31171526163662
0.488561333389953,7.4537399071455,-2.55799254119396,4.08579426974058,8.87667050525265
0.498547333525494,9.21851437568665,-1.47430175185204,5.25189542412758,10.7115348338241
0.50853233342059,11.03865203619,-0.0801015919446945,6.26890982866287,12.6947818209302
0.5185183333233,12.6634786605835,2.38792685866356,6.25943967819214,14.3264256377614
0.528504333458841,13.8512376093864,4.99344030618668,5.98748392403126,15.8946907218626
0.538490333361551,14.8425780594349,7.10809929549694,4.67056787520647,17.1067648409035
0.548476333497092,15.3391341376305,8.25345248222351,3.0298704457283,17.6801761554131
0.558462333399802,15.3855060660839,9.23884748339653,1.85574369549751,18.0420033365019
0.568448333535343,14.7832194650173,10.151800160408,0.809717745780945,17.9515533332233
0.578434333438054,13.6209204626083,10.6069263768196,-0.32507741600275,17.2667899952009
0.588420333340764,12.6529010474682,10.5718009829521,-1.88537855386734,16.5955877639676
0.598406333476305,11.6283811569214,11.1921508026123,-4.31314570873976,16.7058885972546
0.608392333379015,10.5321591997147,9.61956963479519,-5.07290513634682,15.1392491190674
0.618378333514556,6.65489271998406,8.58339390456677,-6.21343846321106,12.5127561141246
0.628364333417267,3.2201563847065,8.88018687665462,-6.4226179254055,11.4226593717057
0.638350333319977,-1.52736932694912,7.41437352776527,-8.20279162108898,11.1620599464946
0.648336333455518,-2.95396890878677,5.62114124536514,-6.70441980600357,9.23430593761963
0.658322333358228,-5.29714059412479,3.72407703101635,-3.1238726234436,7.18936912213921
0.668307333486155,-6.22433416485787,3.82000001907349,-0.947110941410065,7.36422128109123
0.678293333388865,-4.91832229614258,4.9689159142971,-1.74316023588181,7.20545815198782
0.688279333524406,-3.22543875932694,3.76311362743378,-0.0836350643634796,4.95696219343434
0.698265333427116,-2.71172870457172,1.15038939356804,1.3268291258812,3.23068782975371
0.708251333329827,-3.46819059491158,-1.41950106203556,1.70556965589523,4.11731673773876
0.718237333465368,-6.15362320125103,-3.92662458121777,0.666169770956039,7.3300232788535
0.728223333368078,-6.79903067886829,-4.17445179998875,0.586841765642166,7.99982807693538
0.738209333503619,-5.65006274342537,-2.71627608418465,1.43718655049801,6.43170816743804
0.748195333406329,-3.27727374136448,-1.2339893746376,-0.229538297653198,3.50940746888206
0.75818133330904,-1.17659544467926,0.807975860238075,-2.65625383079052,3.01544130182578
0.76816733344458,0.55144623041153,1.36772630631924,-1.07886859059334,1.82721800281236
0.778153333347291,2.63928696513176,-1.25995042741299,-0.613240774869919,2.98820598550629
0.788139333482832,3.73342263579369,-3.62810668051243,-0.434385557770729,5.22401124380828
0.798125333385542,3.61752731323242,-4.28080212771893,-0.298064741492271,5.61254071778427
0.808111333521083,3.43570755779743,-3.6176050812006,-0.287660790681839,4.99738948619482
0.818097333423793,3.49593504846096,-2.7505273193121,0.352592951059341,4.46220620169851
0.828082333318889,3.61391958117485,-3.01116227924824,2.24077699899673,5.21043132287522
0.83806833345443,3.51353867590427,-3.83603133022785,3.38949058055878,6.20876290328931
0.84805433335714,3.66809637308121,-4.3937849521637,2.32447872161865,6.17765963252505
0.858040333492681,2.71748762726784,-3.42731855750084,0.513342264890671,4.40394956599942
0.868026333395392,1.33769091367722,-2.16984033286572,-0.590845938920975,2.61662434717037
0.878012333530933,0.354685669541359,-1.4937805813551,-0.660679235458374,1.67143034601428
0.887998333433643,0.399652512073517,-1.15727273583412,0.0762605559825897,1.2267102298059
0.897984333336353,0.517462213039398,-0.995096701383591,0.114861534833908,1.12746519201816
0.907970333471894,-0.407857325077057,-1.58008606910706,-0.274867009744048,1.65486297210701
0.917956333374605,-1.38770214915276,-1.94403665184975,-0.307651836276054,2.40824529707054
0.927942333510146,-1.75967511177063,-1.71652207553387,-0.166976744681597,2.46389646049596
0.937928333412856,-2.68717332243919,-0.916870896220207,-0.226349664777517,2.84829543339687
0.947914333315566,-3.22037857890129,0.370297735333443,-0.255111533850431,3.25162121086434
0.957900291774422,-2.51368058681488,1.32511764585972,0.301927850693464,2.85756667374939
0.967886291677132,-0.474097507596016,1.53798202335835,0.639808476269245,1.73190993911004
0.977872291812673,0.507344191074371,1.80347952783108,0.58182368516922,1.96174803074875
0.987857291707769,-2.60228987753391,1.39788975298405,2.00122037440538,3.56803746549115
0.99784329184331,-5.42473619520664,1.95226690024138,2.68398425102234,6.35947169952812
1.00782929174602,-6.07363621473312,3.6321485683322,1.237482355088,7.18421343436492
1.01781529164873,-3.63134603798389,5.49245104551315,-1.13694679096341,6.68179171633042
1.02780129178427,1.77667530655861,7.80338527679443,-1.69470932990313,8.18055234295876
1.03778729168698,4.42377824485302,9.97442253470421,-0.772628272175789,10.9387327103013
1.04777329182252,6.54999776422978,9.95019050359726,1.27267806172371,11.9803368574546
1.05775929172523,9.26677144646645,6.93753893852234,0.966259987950325,11.616202388426
1.06774529186077,8.69412321209908,4.44933993279934,-1.4372725045681,9.87168458355261
1.07773129176348,9.83331167936325,3.01147744417191,-1.08745047591627,10.3414488113527
1.08771729166619,13.4751528847218,1.23556578397751,3.13075479626656,13.8891322143432
1.09770329180174,10.5060525512695,-0.817308016419411,3.22726893782616,11.0209072857364
1.10768929170445,7.96894451022148,-1.3892627710104,0.559593740701675,8.10846920253984
1.11767529183999,7.61383433282375,0.146613669991493,-0.0271801972389221,7.61529431992199
1.1276612917427,7.22618732392788,-0.0290308409929276,0.688248272538185,7.25894701143882
1.13764729164541,5.75346315085888,-1.63770862519741,0.524951290301979,6.00499805383205
1.14763229177333,-3.19316914558411,-4.89228172123432,-3.70242654561996,6.91655347394533
1.15761829167604,-4.57660516619682,-4.48389288425446,-5.84596961081028,8.67329066359732
1.16760429181159,-1.25417513251305,-1.20594320476055,-1.25761212587357,2.14682149590191
1.1775902917143,0.247881013154984,0.4236097240448,0.499359818100929,0.700178850667346
1.18757629184984,6.01532953441143,4.26976667761803,0.26789610542357,7.38152187642635
1.19756229175255,-4.8629210972786,-0.704398866891861,-3.16561238765717,5.84510745418117
1.20754829165526,-5.01705604076386,-4.32067019820213,-3.50934914588928,7.49363554661894
1.2175342917908,-0.0467022961378098,-1.48032847702503,-0.916721719130874,1.74181865149104
1.22752029169351,3.52343508839607,2.47671156585217,-0.423173010125756,4.32755940445252
1.23750629182905,2.26504820644856,3.20143243074417,-1.0337819532305,4.05565261246343
1.24749229173176,-4.27767912983894,-1.04246674954891,-3.58762465238571,5.67946531886413
1.2574782918673,-3.97613354086876,-1.75618023097515,-4.45908548712731,6.2271382126944
1.26746429177001,-5.22992275714874,-0.802389430403709,-3.80773022174835,6.51879822401197
1.27745029167272,-7.31325821220875,-0.440057649314404,-0.144021635837853,7.32790138066474
1.28743629180826,-6.70699258089066,-0.184892467260361,6.0845593982935,9.0575823361388
1.29742129170336,-6.78157323181629,0.95821626573801,12.7372599971294,14.4618707691946
1.3074072918389,-4.38612276077271,0.633568912446499,11.0991332960129,11.9511607119162
1.31739329174161,-1.48867362320423,-1.30293067842722,2.30999750733376,3.0413592344705
1.32737929164432,-0.474233747720718,-0.216990465223789,-1.72705466508865,1.80407880251384
1.33736529177986,-4.57608651816845,3.38796971976757,3.38767326593399,6.62534805127616
1.34735129168257,-9.09246010065079,1.25901107221842,5.13436638951302,10.5175880211984
1.35733729181811,-5.69710476279259,-1.76551677256823,5.63147736847401,8.20290128577009
1.36732329172082,-1.61147392272949,-3.14412825554609,11.3166555655003,11.8553398888066
1.37730929185636,-8.96322727918625,-13.0595971155167,0.394207584857941,15.8444917778362
1.38729529175907,-7.72313984334469,-9.54700101077557,-3.49989887595177,12.7687669522745
1.39728129166178,-5.24830815732479,-2.183466976583,-4.97313994288445,7.55277349346471
1.40726729179733,-7.1790874171257,3.78314297229052,-11.2942045962811,13.9072112356928
1.41725329170004,-7.01751949310303,4.8101531919837,-9.30283590316773,12.6065819875055
1.42723929183558,-3.27523540198803,-2.29526427805424,-6.22661457896233,7.40041445862958
1.43722529173829,-3.16706366658211,-7.25933343529701,-4.52071630954742,9.11948957696722
1.44721029186621,-6.16929140031338,-3.53853932350874,-3.29393070459366,7.83781834521974
1.45719629176892,-3.64915490269661,1.49932081818581,2.84315949440002,4.86290554404638
1.46718229167163,-3.47754672467709,1.73893913090229,1.32068136334419,4.10626835299158
1.47716829180717,-2.01302970349789,-0.253380319476128,-2.58839046120644,3.28880758834066
1.48715429170989,0.941116960644722,-2.76473371446133,2.80105720281601,4.04664986117402
1.49714029184543,-4.40805391252041,-2.14731978178024,5.74786911964417,7.55512547595804
1.50712629174814,-10.5823937988281,-5.04631726205349,0.361571789234877,11.7295827113135
1.51711229165085,-0.637575716972351,-8.38328639745712,-12.1697608208656,14.7915202752705
1.52709829178639,-6.84097392618656,-4.89140346944332,-2.64982949495316,8.81738898495299
1.5370842916891,2.02037731468678,-5.45635735273361,-3.70864798307419,6.89984274580163
1.54707029182464,12.7422967886925,-2.40908910155296,-4.93506872177124,13.8753285020193
1.55705629172735,7.63452353596687,2.18408882796764,6.76042794585228,10.4287861058105
1.56704229186289,9.00571197867393,-1.44363836824894,6.99047962903977,11.4914640244458
1.5770282917656,4.50639501661062,-0.620907644033432,2.72805822372437,5.30428355390078
1.58701429166831,0.944434378445149,-0.265937799811363,1.05056441232562,1.43748558010251
1.59699929179624,0.824849755167961,-1.90595724463463,-0.835975690931082,2.23872854379524
1.60698529169895,-0.497141969203949,-3.23561583817005,-2.52551885962486,4.13456231058159
1.61697129183449,-2.15627625435591,-3.58200489342213,-4.89841837406159,6.44009230593346
1.6269572917372,-2.3160267175734,-4.62183981120586,-4.41454490661621,6.79805779097916
1.63694329163991,-0.937773230373859,-4.84937426805496,-1.32820409864187,5.11468235093134
1.64692929177545,2.05453324019909,-2.95127334237099,-1.83421892523766,4.03676606235394
1.65691529167816,2.48943335294724,-2.27265777289867,-5.74835326910019,6.66376898443049
1.6669012918137,2.13220122098923,-3.48263672590256,-7.09263516426087,8.18416239970243
1.67688729171641,2.90213568091393,-3.43773771107197,-3.94954508185387,5.98659656517425
1.68687329185195,3.21818061053753,-3.90792693972588,0.744832509309053,5.11696735139072
1.69685929175466,2.49860091000795,-4.58801249921322,0.655209603756666,5.26518421570265
1.70684529165737,-0.0990272748470306,-5.99655003190041,-0.631880528926849,6.03056313200395
1.71683129179291,-0.971329816281795,-6.30121277153492,0.566901737004519,6.40079226217908
1.72681729169562,2.39344721496105,-4.41830408155918,0.407400218993425,5.04142593582046
1.73680329183117,6.83385494112969,-3.00191022992134,-1.62870888322592,7.63974678973119
1.74678829172626,6.45067286610603,-3.91796485483646,-1.34952523961663,7.66699728717917
1.7567742918618,6.38040219783783,-3.92736776232719,-0.0867235636711121,7.49274787532829
1.76676029176451,6.59090839326382,-2.85406455159187,-0.204382260292768,7.18522999084728
1.77674629166722,4.64042694032192,-1.37419157266617,-2.58272684812546,5.48565790392367
1.78673229180276,0.999849172085524,-0.0526571005582809,-2.08640714362264,2.31420956400212
1.79671829170547,-1.35791687116027,-0.0282829821109772,-1.79397458642721,2.25012954578297
1.80670429184102,-2.1050648778677,-1.51452299416065,-2.44155635118484,3.56177981575006
1.81669029174373,-2.48282775342464,-2.71065866410732,-2.2180573502183,4.29323682730561
1.82667629164644,-2.98905746519566,-2.98126780450344,-0.0661510124802589,4.22217931983742
1.83666229178198,-2.62283582389355,-1.0310529845953,1.31473796099424,3.1098028751388
1.84664829168469,-3.35473619252443,0.415130676627159,1.33259097218514,3.63350892378973
1.85663429182023,-4.28455223947764,2.00788707733154,1.33777043581009,4.91717684724226
1.86662029172294,-4.39148553460836,3.25362877070904,1.51321541056037,5.67107276068801
1.87660629185848,-3.89296333014965,4.38882768273354,1.22044503048062,5.99219976227787
1.88659229176119,-2.98151338756084,5.0456945335865,0.853717020303011,5.92260822249997
1.89657729165629,-1.63591718450189,5.06706025958061,-0.0395200149714947,5.32474286143031
1.90656329179183,-0.469006044566631,5.15686706006527,-0.669954381287098,5.22131050772046
1.91654929169454,-0.0325198745727539,4.33681669950485,1.15616848915815,4.48840307934444
1.92653529183008,0.266971879899502,3.11803242444992,2.95877882838249,4.30671247471463
1.93652129173279,0.813748085349798,1.96333363294601,3.88877964735031,4.43164439529093
1.94650729186833,1.26364235937595,1.42239017128944,3.62290792107582,4.09212018596521
1.95649391668849,1.87819057166576,0.0125165498256683,1.6749675218761,2.516599429161
1.96647991682403,2.84282854199409,0.00652783155441284,-0.834691130742431,2.96284086908176
1.97646591672674,1.10009456813335,-1.54670606911182,-1.88227719068527,2.67310215772572
1.98645191686228,-0.365260943770409,-3.2063464307785,-2.47473345279694,4.06674054417077
1.99643791676499,0.183793190717697,-2.18825555384159,-1.39658173084259,2.60243786415662
2.0064239166677,1.77727084547281,0.601889575123787,-0.132439434528351,1.8810908863286
2.01640991680324,1.97141214609146,2.50228670239449,0.453435201644898,3.21768675803409
2.02639591670595,1.43108381152153,3.39252762436867,0.336949456483126,3.69740172201071
2.03638091683388,0.341382961571217,2.57347889184952,0.390971881896257,2.62529902024125
2.04636691673659,-1.10852800726891,0.297472418546677,0.410667350739241,1.21900445268209
2.0563529166393,-2.0672307613492,-0.0914820277690887,-0.868192241191864,2.2440075199827
2.06633891677484,-2.68314839154482,0.731308338046074,-0.488310188502073,2.8235693751952
2.07632491667755,-2.78603745996952,1.66049230098724,0.234211246222258,3.25178325197857
2.08631091681309,-2.45010878115892,2.62736975491047,-0.213617498874664,3.59885222041081
2.0962969167158,-1.58959013342857,4.21199852585793,-0.821340841054916,4.57627896344919
2.10628291685134,-0.788326292037964,5.62152599215508,-0.430749028176069,5.69285144268389
2.11626891675405,-0.525815545320511,6.41878273665905,0.493410422354937,6.45915688406942
2.12625491665676,-1.52443168580532,7.85558687925339,1.81646780177951,8.20571096597284
2.1362409167923,-4.36900913000107,9.36150744974613,2.74171351879835,10.6884543096206
2.14622691669501,-7.0823007953167,8.5523042589426,1.15455685034394,11.1639551330856
2.15621291683055,-7.17007919669151,5.74778199613094,-0.82380865842104,9.22635866783667
2.16619891673326,-5.01428036749363,2.69955246269703,-3.49431449264288,6.68137896516727
2.17618491686881,-1.22261186242104,-0.371955420970917,-3.9097082939744,4.11326507111984
2.1861699167639,2.1245127171278,-2.69893675088882,-2.75842164516449,4.4053040579565
2.19615591666661,2.27144622981548,-0.112793374657631,2.45812034368515,3.34881261708511
2.20614191680215,0.18645601272583,-0.0918556648492813,2.19064414143562,2.20048291569208
2.21612791670486,-1.36715678751469,-5.12247256815434,-6.60326063632965,8.46828754379785
2.2261139168404,-1.16832923591137,-9.46790806353092,0.507813210859895,9.55322723272523
2.23609991674311,1.28882865607739,-12.4952776551247,4.48006646633148,13.3365677190997
2.24608591664582,5.78891189575195,-16.0888009786606,1.91638049125671,17.2056250120418
2.25607191678137,10.2152143836021,-18.7952899932861,0.990193153247237,21.4148082717406
2.26605791668408,12.7224033915997,-19.2691834330559,2.76936529397964,23.2557597675681
2.27604391681962,11.7107602393627,-17.5972797060013,0.83870824098587,21.1544224678572
2.28602991672233,9.80492578625679,-14.8523241984844,0.788401136398315,17.8143111043555
2.29601591685787,9.00488225877285,-12.7210129237175,1.69648074388504,15.6776950223597
2.30600191676058,7.32386330723763,-10.3697071766853,0.486227593012154,12.7045746857385
2.31598691665567,4.72930169463158,-7.59043962299824,0.241678323335946,8.94647844691962
2.32597291679122,3.01306262433529,-5.1893974596262,-0.0994330716133118,6.00152308234098
2.33595891669393,1.98449879944325,-3.01983370006084,-0.51178109485656,3.64959599819863
2.34594491682947,1.56625038743019,-0.794024988412857,-0.499527633190155,1.82568995578927
2.35593091673218,1.56353377103806,1.51315416097641,-0.495487207174301,2.23154227845454
2.36591691686772,1.4933867713809,3.71569504737854,-0.0547896166518331,4.00494639616334
2.37590291677043,0.9218629565835,5.64363840758801,0.751563677787781,5.76761074866302
2.38588891667314,-0.612896958589554,7.42017630457878,1.25877338290215,7.55110385985941
2.39587491680868,-2.66580671936274,8.98586302042008,1.22683004379272,9.4529028157019
2.40586091671139,-4.22875021398068,10.4396457231045,1.43983124613762,11.3552474747814
2.41584691684693,-4.87280786186457,11.5340585517883,2.46817170739174,12.7620779934891
2.42583291674964,-4.73941386938095,11.9673044872284,3.87961939930916,13.4435808919653
2.43581891665235,-3.20864614069462,12.0082069301605,2.25391920089722,12.6322046966443
2.44580491678789,-1.5897662808001,11.742200717926,-3.21897641658783,12.2787802202898
2.4557909166906,-0.545958910882473,10.6110954415798,-7.17516978263855,12.8209390846528
2.46577591681853,-0.859481205493212,8.42154940724373,-4.36867233037949,9.5260957527975
2.47576191672124,-2.27218634113669,6.70033377170563,0.616508783698082,7.10192836499243
2.48574791685678,-4.17906145244837,5.92397205233574,2.78727122247219,7.7670380691623
2.49573391675949,-5.77369861006737,5.86890180587769,2.4140972417593,8.57947956111547
2.5057199166622,-6.5352469933033,6.56088820338249,1.70414468944073,9.41588107419122
2.51570591679774,-6.0866977250576,7.67113646149635,1.76138366818428,9.9497083491762
2.52569191670045,-5.11343745052815,8.55496064901352,1.64938142180443,10.102230117218
2.53567791683599,-3.73145826369524,9.40389333128929,0.740158098936081,10.1442015245847
2.5456639167387,-2.11874940901995,10.2478231358528,-0.229982686042786,10.4670850821908
2.55564991664141,-0.895508678555489,10.7418707585335,-1.02947832942009,10.8281830801456
2.56563591677696,-0.265991594195366,11.1610997486115,-1.4958364623785,11.2640323973619
2.57562191667967,0.201924090832472,11.4004438269138,-2.42355394363403,11.6569509952981
2.58560791681521,1.30361451029778,11.3675345277786,-4.61662584900856,12.3382934906506
2.59559391671792,2.61159104347229,10.6073426985741,-5.13624509990215,12.0713354948658
2.60557891684584,4.11480435311794,9.77976755619049,-4.8897516310215,11.6826854502992
2.61556491674855,3.87433527052403,7.66482088387013,2.15752375781536,8.85521663968622
2.62555091665126,2.14600415825844,4.34695927977562,9.57304684817791,10.7305458754296
2.6355369167868,3.66751808345318,2.60432997107506,-5.24176921606064,6.907196826871
2.64552291668951,2.39761423319578,0.423268831372261,-19.3899144029617,19.542172117475
2.65550891682506,1.45984538823366,-0.437336062788963,5.95930092930794,6.1510713664705
2.66549491672777,2.33884240686893,-2.77683862030506,13.0090187001228,13.5061313508914
2.67548091686331,7.51632090210915,-8.96769747555256,1.47975135684013,11.7942503786627
2.68546691676602,14.3250000715256,-17.188264632225,-14.1414594805241,26.4692830344139
2.69545291666873,13.2404608511925,-20.0122873592377,8.11366017401219,25.3304743406044
2.70543891680427,15.3864895677567,-20.8505535507202,9.97924648761749,27.7682373414439
2.71542491670698,17.2157968318462,-20.4451380228996,-0.71742587864399,26.7376519018064
2.72541091684252,15.814110481739,-17.4263316786289,5.50080437779427,24.1665466069316
2.73539691674523,15.5791459679604,-16.4366109073162,6.42757227122784,23.5411480712258
2.74538191664033,13.4952801704407,-17.2728481149673,3.5614688873291,22.2071594202598
2.75536791677587,9.32150138497353,-17.7624623787403,2.36002920806408,20.1981483232781
2.76535391667858,6.50290721297264,-19.2025064635277,2.06962548851967,20.3790923832511
2.77533991681412,4.56497359246016,-21.0385719394684,1.01029412649572,21.5518256158052
2.78532591671683,2.55423102736473,-22.6199163293839,-0.481986607499421,22.7687729572607
2.79531191685237,-0.577874183356762,-23.0592807912827,-0.610620052814484,23.0746013190241
2.80529791675508,-3.34871385276318,-20.088455529213,-0.130042003020644,20.3660708272215
2.81528391665779,-3.27784413725138,-13.2110984730721,0.690407649278641,13.6291616681109
2.82526991679333,-1.17876037627459,-5.33228645324707,1.64434989273548,5.70321325341219
2.83525591669604,-0.915135734975338,0.73668192923069,1.11482253491879,1.6195687582337
2.84524191683158,-1.04172035247088,5.49392103552818,-0.271358753442764,5.59839130558423
2.85522791673429,-0.627686905860901,8.83434470593929,-0.712326521873474,8.88521504010518
2.865213916637,0.247631775587797,10.9057331299782,0.126423234343529,10.9092767602975
2.87519991677254,1.0280447383225,11.9301325678825,1.82315365433693,12.1123419832238
2.88518591667525,1.15414491400123,13.0426097846031,1.06752908527851,13.1370216877288
2.89517091680318,0.260656302273273,14.035191013813,0.0705601054430008,14.0377885448746
2.90515691670589,-1.25708192959428,14.0830680155754,1.81436119616032,14.254997939641
2.91514291684143,-2.62934319019318,14.1094038748741,2.87955724239349,14.6383254926357
2.92512891674414,-3.57382113039494,14.1935008692741,2.24969692647457,14.8084030421627
2.93511491664685,-4.03109941452742,14.3395456051826,0.879616531133652,14.921328891716
2.94510091678239,-3.97874841570854,14.2838812816143,-0.00988298216834664,14.8276701169163
2.9550869166851,-3.47892725229263,13.8191094982624,-0.202737073078752,14.2517305781618
2.96507283346727,-2.85572691500187,12.9320705115795,-0.0583090192079544,13.2437541456813
2.97505883336999,-2.33252054348588,11.2778031563759,0.0758932777494192,11.5167380759203
2.98504483350553,-2.13185550436378,9.14726839184761,-0.405809703245759,9.40117058877398
2.99503083340824,-2.21086088955402,7.27311122953892,-0.788824474811554,7.64253209887053
3.00501683331095,-2.70514912515879,5.78236242949963,-0.666817715540528,6.41858184657599
3.01500283344649,-3.53625160038471,4.62645735740662,-0.695343284010887,5.86452771702413
3.0249888333492,-4.27245551973581,4.00055853009224,-1.42688331797719,6.02447846074134
3.03497483348474,-4.86670190691948,4.04134285926819,-2.54771722912788,6.81968493675234
3.04496083338745,-4.95358626902103,4.98438881635666,-3.24227347791195,7.73915280265394
3.05494683352299,-4.26202379465103,6.7598151576519,-3.35145034968853,8.66557368200279
3.06493183341809,-3.00301067590714,8.56742223501206,-3.38164946436882,9.6878454762892
3.0749178333208,-1.46575765416026,9.722049690485,-3.98333789527416,10.6081891231688
3.08490383345634,-0.211351118087769,10.0752928519249,-4.12078079223633,10.8874712254421
3.09488983335905,0.721018407940865,9.60030130505562,-3.15146387994289,10.1300235576738
3.10487583349459,1.39085964560509,8.70738762080669,-1.79298786878586,8.99821622491723
3.1148618333973,2.22604347735643,8.03929587006569,-0.520741331577301,8.3580332126613
3.12484783353284,3.4815406653285,7.61637319386005,0.463219859227538,8.38718299970072
3.13483383343555,4.41721591472626,7.38691617250443,1.21417191825807,8.69209643434798
3.14481983333826,4.70441214412451,7.49313727676868,2.38586922347546,9.16356763612371
3.1548058334738,3.89987181544304,8.03476252377033,4.40338374137878,9.95772049035874
3.16479183337651,2.05571145415306,9.24909355938435,5.84673968911171,11.1335549688864
3.17477783351205,0.795563683211803,10.9434897708893,3.82501809954643,11.619967874373
3.18476383341476,-1.03622864753008,12.1612110221386,-5.08754364073277,13.2231586102303
3.19474983331747,-3.89810800284147,10.8348297929764,-12.5575189268589,17.0376073508872
3.20473583345301,-2.95732404112816,7.53970508694649,5.48454444050789,9.78126505122253
3.21472183335572,-4.79223059892655,3.89933270215988,12.7671264052391,14.1834335152943
3.22470683348365,-6.17718455672264,-0.258559783101082,7.13876034021378,9.44385310158195
3.23469283338636,-5.78024749159813,-6.4839715898037,3.13829653501511,9.23591109654027
3.2446788335219,-4.09688380658627,-16.9742284727097,3.36781846046448,17.7834499001476
3.25466483342461,2.22210303872824,-29.6943970584869,14.4177053368092,33.0842135430307
3.26465083332732,12.1345746159554,-38.2785446691513,16.6554768669605,43.4729777305887
3.27463683346286,24.6208124756813,-33.8819717645645,-23.2774450850487,47.9167180356175
3.28462283336557,17.5069144964218,-22.0704862189293,-6.32480979502201,28.872160225175
3.29460883350112,11.0523485541344,-14.2864832925797,-1.14408521801233,18.098810580182
3.30459483340383,8.82483771800995,-13.6144850170612,-6.67242910444737,17.5428980839219
3.31458083330654,5.6832106089592,-15.0669672989845,0.206413144469261,16.1045022524965
3.32456683344208,4.31738874077797,-15.9282878923416,-1.1977217271924,16.5464418548551
3.33455283334479,3.73525339901447,-16.8608041834831,2.63539447367191,17.4695203053911
3.34453883348033,3.64911835759878,-18.0233300578594,3.54453652024269,18.7275260060062
3.35452483338304,4.73555119872093,-19.4249626135826,2.67532452464104,20.1720593645501
3.36451083351858,7.78250837802887,-20.5910190367699,1.3914431977272,22.0566002774501
3.37449683342129,11.2250460684299,-19.9238306808472,0.712092633247375,22.8794179155801
3.384482833324,12.59062469244,-17.1491292178631,0.62276464663446,21.2838976430997
3.39446783345193,12.7158685433865,-13.0226625931263,-0.264524673968554,18.2031048760983
3.40445383335464,10.6677397584915,-8.19215553581715,-0.871993442997336,13.4785925245387
3.41443983349018,6.92307292699814,-3.96394969761372,0.065470177307725,7.97785198545719
3.42442583339289,3.60970227688551,-0.519299408197403,1.54162074565887,3.95932026067006
3.43441183352843,0.445400250256062,2.75073957324028,3.07862686872482,4.15245625859595
3.44439783343114,-2.30493498802185,5.63643990039826,3.93239695250988,7.24885686449372
3.45438383333385,-5.04141086339951,7.917401304245,4.56626904308796,10.4380017187164
3.46436983346939,-7.06580989301205,9.65043065428734,4.8078414952755,12.8907649540704
3.4743558333721,-7.11261100709438,10.8346075987816,4.39214890122414,13.6846238212214
3.48434183350764,-5.71883418560028,11.2553615427017,3.83651021718979,13.1949626201032
3.49432783341035,-3.94919015586376,11.6975314986706,2.47110817909241,12.591057210669
3.50431383331306,-1.9284609849751,12.5099319469929,-0.706042519211769,12.6773757192843
3.5142998334486,2.20033970206976,14.8910783743858,-12.8580915391445,19.7968741973481
3.52428583335131,3.41409274041653,15.4432730484009,-12.4392730236053,20.12178483742
3.53427183348685,1.73715163707733,14.472146422863,-5.40660573363304,15.5464498665753
3.54425783338957,0.377842251509428,13.6563662838936,-2.27533638238907,13.8497747454576
3.55424383352511,-0.65102182790637,12.7608441567421,-1.97360134363174,12.9289626527674
3.56422983342782,-1.75400009661913,11.4186321759224,-1.8973483890295,11.7073313789823
3.57421483332291,-2.83400567829609,10.1450641679764,-1.2478934687376,10.6071274747827
3.58420083345845,-3.8345902839303,9.20290114045143,-0.53577806789428,9.98421404941678
3.59418683336116,-4.80555114090443,8.56055000245571,0.317117308974266,9.82226559913971
3.6041728334967,-6.01959741711617,7.81766827046871,1.46425038814545,9.9747440794453
3.61415883339941,-7.16685621142387,6.97004887282848,2.46323139488697,10.2962574826778
3.62414483353496,-7.25329150736332,6.40193106114864,2.7309245288372,10.0525075371617
3.63413083343767,-6.66005639612675,6.02385535955429,3.18185302913189,9.52719125930699
3.64411683334038,-5.42974141180515,6.47299519658089,3.45505891799927,9.12793463719353
3.65410283347592,-3.51342991769314,7.45551979959011,2.98204431474209,8.76479056017353
3.66408883337863,-1.82096869602799,8.44377642810345,2.03429251849651,8.87421170642893
3.67407483351417,-0.139783391207457,9.30859014809132,0.012348003834486,9.30964781368226
3.68406083341688,1.81457491189241,10.082821726799,-3.25064727544785,10.7481479239289
3.69404683331959,2.58384015798569,10.4738063263893,-3.81127012610435,11.441268675233
3.70403283345513,2.89784119337797,10.5532641398907,-3.65147273898125,11.536989241213
3.71401883335784,3.44196320146322,10.3990461659431,-3.55310795366764,11.5157217738212
3.72400483349338,3.87855754494667,10.006638354063,-2.87819893419743,11.1112577543356
3.73399083339609,4.24205087542534,9.7114282232523,-1.28935198187828,10.6756387302237
3.74397683353163,4.47512820035219,9.59266951918602,1.16419116139412,10.6490103753436
3.75396183342673,4.71892902642488,9.78901668190956,2.90615915000439,11.2489510515556
3.76394783332944,4.80286376059055,11.0877546143532,3.07081089556217,12.4673847396801
3.77393383346498,4.14997827887535,12.5259381151199,2.31804795384407,13.3975666333582
3.78391983336769,2.68859419584274,13.5766266345978,-5.25929682970047,14.8058614294504
3.79390583350323,-1.23566606372595,11.5648312783241,-16.9372729003429,20.5461287452853
3.80389183340594,-2.5916920915246,7.63139293670654,-2.41297574579716,8.41293515971037
3.81387783330865,-3.28275813728571,3.88526020824909,14.0186106491089,14.9128532617011
3.82386383344419,-5.4786925470829,-0.00851880848407745,7.80546454668045,9.53632116620687
3.8338498333469,-5.49081850290299,-6.54046738743782,5.17939579725266,9.98763947600022
3.84383583348244,-4.15325593560934,-17.9504152786732,3.05149695754051,18.6756145073027
3.85382183338515,-0.586103847026825,-34.0240895104408,8.37351570010185,35.0442284822172
3.8638078335207,3.98297946095467,-45.8338021802902,14.3822501599789,48.2021852964425
3.87379383342341,10.544036064148,-45.4655164718628,8.65874989628792,47.4685562698272
3.88377983332612,21.254778585434,-31.4615893507004,-26.7588117957115,46.4503092121703
3.89376583346166,18.1326425850391,-18.5292054283619,-4.0745801872015,26.2435970214669
3.90375183336437,13.7257236170769,-15.8093017315865,4.40914149463177,21.3955611932103
3.91373683349229,10.5842801105976,-16.2984143042564,-2.62656868636608,19.6103074263761
3.923722833395,9.90359521150589,-16.666987695694,0.364912449717522,19.3907926103534
3.93370883353055,10.3909208750725,-18.5854848790169,1.52891766965389,21.3478119267704
3.94369483343326,10.5178300130367,-20.4214872050285,0.946089432835579,22.9903669623432
3.95368083333597,10.3366902887821,-21.1953942632675,0.592384852990508,23.5890403347743
3.96366633335128,9.8355839073658,-20.1346204662323,0.850333090424538,22.4246453368325
3.97365233348683,10.0074464392662,-17.2606590092182,0.189528651461005,19.9528257341413
3.98363833338954,8.80055657029152,-12.198871768713,-0.161092033758759,15.0428793460476
3.99362433352508,6.06511682152748,-6.56143784165382,0.300193676166236,8.94025865687748
4.00361033342779,3.59290001034737,-1.90913403689861,1.29563539981842,4.26994078933907
4.0135963333305,1.01362857431173,2.06511611580849,2.89538156211376,3.69802404652289
4.02358233346604,-2.26054117262363,5.19860916316509,3.54259699881077,6.68472715377776
4.03356833336875,-5.61556592524052,7.58617290973663,3.41838284254074,10.0384232494611
4.04355433350429,-7.76104091048241,9.69825561583042,3.2374220430851,12.836308639528
4.053540333407,-7.6418267083168,10.7388746452332,2.93495025515556,13.5031432298637
4.06352633330971,-6.33648609995842,10.9135613822937,2.27530714631081,12.8231782624321
4.07351133343764,-4.07016670882702,11.4976537871361,0.618206815123558,12.2124722850352
4.08349733334035,-1.24564755320549,12.5358666872978,-3.57095190167427,13.0939409236708
4.09348333347589,2.24973084032536,13.8857279956341,-8.19835475385189,16.2815156386822
4.1034693333786,3.39420460581779,14.2060419774056,-6.01488631546497,15.7959207062435
4.11345533351414,2.81591263890266,14.2565081262589,-2.84986274242401,14.8087509802371
4.12344133341685,1.66369555190206,13.9172070658207,-0.925316102877259,14.0468055191418
4.13342733331956,0.371913576833904,13.1822740387917,-1.01630045950413,13.2266222130377
4.1434133334551,-0.386081599630415,12.5771106076241,-1.36808649480343,12.6571889017762
4.15339933335781,-0.796477749198675,11.956654368639,-0.807916803359985,12.0103576157088
4.16338533349335,-1.4181105941534,11.5063497662544,-0.0998967192694545,11.5938389653796
4.17337133339606,-2.41032315641642,11.0967476320267,0.420629982948303,11.3632915702186
4.1833573335316,-3.36336346685886,10.6824782502651,1.03829300701618,11.247471171157
4.19334333343431,-4.20965496182442,10.2150670337677,1.45173617720604,11.1434432439076
4.20332933333702,-4.88722504913807,9.6855548787117,1.70271387577057,10.9815379857377
4.21331533347257,-5.3332752174139,9.15794950067997,2.09463052153587,10.8027469017577
4.22330133337528,-5.33157192349434,8.60911171317101,2.48565722107887,10.4269341364542
4.2332863335032,-4.47859326034784,8.26255425810814,2.29964501202106,9.67553448865371
4.24327233340591,-2.77006725221872,8.34298738718033,1.4301371473074,8.90640238168999
4.25325833330862,-0.929683022797108,8.82869629561901,0.434550449252129,8.88813945075679
4.26324433344416,0.40599425598979,9.48628001511097,-0.658337425589562,9.5177596117428
4.27323033334687,1.42208260774612,10.0561280179024,-1.8720001244545,10.3272655684674
4.28321633348241,2.077083465904,10.2942780947685,-2.137181879282,10.7169950826663
4.29320233338513,2.6156709381938,10.2197635173798,-1.99569329380989,10.7362978969026
4.30318833352067,3.09004881978035,9.88180146932602,-1.75108438253403,10.500699905366
4.31317433342338,3.509781255126,9.45139084875584,-0.848262591361999,10.1176530311473
4.32316033332609,3.85599723279476,9.19089563727379,0.576201002597809,9.98365087881051
4.33314633346163,4.02067704498768,9.11062096774578,1.85292416810989,10.129293474413
4.34313233336434,4.00899547755718,9.1737627106905,2.60257171332836,10.3442421923574
4.35311833349988,3.88572096884251,9.30441582083702,2.88147922217846,10.4868443166946
4.36310433340259,3.87887972652912,9.84886293411255,2.02315532684326,10.7767790412697
4.3730903333053,4.16325467437506,11.0996560370922,-0.356426970362663,11.8601051348909
4.38307633344084,4.95557607650757,10.7509152317047,-6.1761993008852,13.3523537390832
4.39306133333594,3.10273815482855,6.91885533034802,-18.5183997738361,20.0107139633579
4.40304733347148,-0.654554569423199,2.65261861681938,3.22924295783043,4.22999258762317
4.41303333337419,-3.28069904029369,-1.96131868243218,4.1209176170826,5.62065113432805
4.42301933350973,-4.43210292577744,-6.57490164041519,-5.05242818713188,9.4021220217536
4.43300533341244,-5.77946688830853,-10.2439838540554,4.59340304732323,12.6269867454734
4.44299133331515,-7.13425213694573,-16.7388265872002,9.57954719781876,20.563404231428
4.45297733345069,-7.01942510068417,-24.2932912158966,11.5277751338482,27.7907525335505
4.4629633333534,-4.41787080287933,-29.8405774497986,14.4081580030918,33.4301160932836
4.47294933348894,1.47683798164129,-29.9051821660995,16.5755816817284,34.2235427578628
4.48293533339165,10.8414698910713,-25.3712838935852,9.10272547245026,29.0533840857601
4.49292133352719,21.1983459377289,-19.9264970111847,-23.6818736028671,37.5135480989809
4.5029073334299,17.2943120741844,-17.7170797991753,-0.65608156979084,24.7672887041728
4.51289333333261,18.025925052166,-20.2971052336693,5.03067479074001,27.6082260151415
4.52287933346815,16.2784729599953,-20.5472888803482,0.850683265551925,26.2279130748153
4.53286433336325,13.7393242406845,-21.2252711963654,-1.01075444854796,25.3042050360247
4.54285033349879,12.3437926697731,-22.1950412678719,0.0578583450615406,25.3967010051497
4.5528363334015,9.22705949664116,-21.8813241147995,0.872650158405304,23.7632592518456
4.56282233330421,6.61801316142082,-21.1119264292717,0.263727479204535,22.1264793390862
4.57280833343975,5.71129829406738,-18.9167506957054,-0.834883065596223,19.7777504995009
4.58279433334246,6.62032807409763,-16.0659138071537,-2.63278895437717,17.5748089021152
4.592780333478,6.4472428894043,-12.6914751291275,-3.5964948785305,14.6824813039054
4.60276633338071,4.77158203393221,-9.00052432894707,-2.50220776498318,10.4899226404037
4.61275233351626,3.21134287655354,-5.45142581105232,-0.400341314077377,6.33964033774439
4.62273833341897,1.60924964189529,-1.86909990549088,0.931573646888137,2.63648408419672
4.63272433332168,-0.16702951580286,1.85487304508686,1.36601891934872,2.30964511571752
4.64271033345722,-2.41342832028866,5.2183142799139,1.05056455850601,5.84458091506257
4.65269633335993,-4.95854236900806,8.06865181624889,0.551108846068382,9.48651703826644
4.66268233349547,-6.48807165741921,10.2716142868996,0.34685098528862,12.1540709022385
4.67266833339818,-5.68826903522015,11.8862761116028,0.776467042341828,13.2001085406957
4.68265333352611,-3.55547549128532,12.6069407629967,1.43009738624096,13.1765526563275
4.69263933342882,-1.59024677574635,12.7709001982212,2.10613901138306,13.0407284388552
4.70262533333153,0.469746813699603,13.0092245221138,2.25138852596283,13.2109551142446
4.71261133346707,2.34792225569487,13.9693607211113,1.70172335743904,14.2671524930719
4.72259733336978,4.04322829395533,15.1179129195213,-1.88662985801697,15.7625619205899
4.73258333350532,4.13725970774889,15.2185294675827,-3.8645587259531,16.2374681274941
4.74256933340803,2.68016601920128,14.2166792321205,-1.22748317778111,14.5190899587827
4.75255533331074,1.39537749677897,13.6468283057213,0.169763966202736,13.7190313422112
4.76254133344628,0.447555826306343,13.0936653327942,0.327307763323188,13.1053999724087
4.77252733334899,-0.574193178378046,12.0484544849396,0.564018986597657,12.0753083065816
4.78251333348453,-1.47389946341515,11.0799509203434,0.876605799794197,11.2118744977683
4.79249933338724,-2.92741670250893,10.599921412468,0.751809260845184,11.0224008122241
4.80248533352278,-5.34932056188583,10.0347739863396,-0.147345156669617,11.372494450468
4.81247133342549,-8.57781039834023,8.99412922918797,-4.67833443939686,13.2800604271236
4.8224573333282,-11.1704365825653,7.69931477844715,-7.01921343147755,15.2750600227745
4.83244333346374,-11.1304696941376,6.97570663869381,-2.96304144859314,13.4657882556987
4.84242833335884,-9.68393344581127,6.66028736114502,0.405802028775215,11.7602155593547
4.85241433349438,-7.23305429399014,7.13288622736931,1.6900055372715,10.2981192005343
4.86240033339709,-4.30066745817661,8.14249279439449,1.57403887867928,9.34203018000795
4.87238633353263,-1.19381067082286,9.30506778538227,0.729487515091896,9.4096558089552
4.88237233343534,2.31413265824318,10.2455052995682,-0.47395191192627,10.5142864340975
4.89235833333805,4.47586933493614,10.7778135931492,-0.11216362953186,11.6707862987839
4.90234433347359,5.24100556969643,11.0863302326202,0.913018165826797,12.2966849020144
4.9123303333763,5.70261342465878,11.1033409523964,1.27873460769653,12.5474755378595
4.92231633351184,5.50066053628922,10.9721668553352,0.855454666614532,12.3035569866376
4.93230233341455,4.83690566539764,10.8029683148861,0.258935759067535,11.8392072604424
4.94228833331727,4.2006707149744,10.4703143692017,-0.39612664103508,11.2884912083631
4.95227433345281,4.01057100981474,9.98870143532753,-1.06081706643105,10.8159220151271
4.96225979179144,4.11465524911881,9.8158214879036,-0.151591404676437,10.6444219784572
4.97224579169415,4.19157157033682,9.8337584066391,2.79087778508663,11.048125426546
4.98223179182969,3.70514286965132,9.7185384374857,5.14541236460209,11.6040226407576
4.99221679172479,3.58651251196861,9.1101730710268,5.08050534725189,11.0304061559865
5.00220279186033,6.01904310107231,8.25012424707413,3.19885673224926,10.7016874528358
5.01218879176304,10.241685898304,5.06955234289169,-12.0379762744904,16.5983542492028
5.02217479166575,-0.194352677464485,-4.52349549114704,-9.3868580532074,10.4217507422088
5.03216079180129,-7.96278154492378,-10.8004832482338,-3.43223840475082,13.850508611405
5.042146791704,-7.54386011838913,-12.3545842909813,8.11486586987972,16.5950783841151
5.05213279183954,-6.07410457670689,-16.0574014306068,8.44704209804535,19.133410760201
5.06211879174225,-2.15205310285091,-20.9499749279022,3.93815996825695,21.4252627982203
5.07210479164496,5.63176446676254,-21.5761743021011,7.6224057662487,23.5658468591536
5.0820907917805,15.5125005733967,-21.4799408268929,3.05852180242538,26.6717094986872
5.09207679168321,18.908510799408,-20.1590010166168,-1.63843791916966,27.6875708839591
5.10206279181875,13.5232602667809,-17.9769534516335,-0.477403961867094,22.5006075070896
5.11204879172146,7.77319493293762,-17.6829788374901,1.25948323488235,19.3570813412435
5.122034791857,4.20945206344128,-17.9187444198132,3.7804646551609,18.790763722263
5.1320197917521,3.19401231408119,-19.6762806200981,2.55620797097683,20.0970627927127
5.14200579165481,3.23643152475357,-22.1340828752518,1.30596859931946,22.4075359583632
5.15199179179035,3.20862655252218,-23.681943769455,1.2861162789166,23.9329028773375
5.16197779169306,3.67143162488937,-24.0871277475357,1.5390158110857,24.4138834061506
5.1719637918286,4.86643878221512,-23.4701295518875,1.657407310009,24.0265729265474
5.18194979173131,6.71768538415432,-22.0531854772568,0.92879278421402,23.0723415077616
5.19193579186685,8.36822981715202,-19.6339397621155,-0.252097440361977,21.3443766358844
5.20192179176956,9.03511938035488,-16.8515421938896,-1.45829207539558,19.1764040504696
5.21190779167227,8.35300776064396,-13.1177429974079,-2.23749554157257,15.7115978275279
5.22189379180782,6.54314892053604,-8.48270894408226,-2.32075872302055,10.9615268040908
5.23187979171053,4.7086975684762,-4.61614754676819,-1.88449562430382,6.85798620025791
5.24186579184607,1.96626425743103,-1.02244295954704,0.241369553804398,2.22931469225003
5.25185179174878,-1.12331678509712,2.36294989228249,2.79066260755062,3.82533274138342
5.26183779165149,-4.25824093848467,5.22730788230896,3.3907705360651,7.54683300563113
5.27182279177941,-6.39398411035538,7.98727026879788,2.95808768749237,10.6503428074966
5.28180879168212,-7.21135352253914,10.1478240537643,2.30278087377548,12.660361464264
5.29179479181767,-7.09290647506714,11.2909172916412,1.85491514503956,13.4623491912084
5.30178079172038,-5.37600257635117,11.8098997807503,1.8217661100626,13.1032045047031
5.31176679185592,-3.05646913737059,12.024610708952,1.71216239154339,12.5245665132393
5.32175279175863,-1.36114614218473,12.0207059383392,1.18080244325101,12.1550147875844
5.33173879166134,-0.507102591432631,11.9725412535667,0.0499070819467306,11.9833796494738
5.34172479179688,2.38026978358626,13.2105125820637,-4.97961924254894,14.3171203363065
5.35171079169959,5.75522842526436,14.6672469592094,-9.25855201542378,18.2748891381512
5.36169679183513,3.45190931528807,13.6585250759125,-2.73522047817707,14.351042339654
5.37168279173784,1.61299376025796,13.0713090884686,-0.848390060663223,13.1977511664656
5.38166879164055,1.52315918549895,13.0256154370308,-1.26052111566067,13.1748087235
5.39165479177609,1.21873062685132,12.6617572402954,-1.66457365751266,12.8287258219312
5.4016407916788,-0.0163826922699809,11.9938625407219,-1.61383736729622,12.1019617453708
5.41162579180673,-1.4102921359241,11.2545978963375,-0.997094110250473,11.3863556233586
5.42161179170944,-2.24943774864078,10.7141374146938,-0.0302903495170176,10.9477681849419
5.43159779184498,-2.99471640050411,10.2404123747349,0.81048840880394,10.7000590365136
5.44158379174769,-3.89448945343494,9.6622794520855,1.35708203494549,10.5056348671882
5.4515697916504,-4.51437061876059,9.04521693706512,1.4207488578558,10.2085267712436
5.46155579178594,-4.58103969454765,8.41197283744812,1.16517349362373,9.64908498103471
5.47154179168865,-4.31521650016308,7.922657366395,1.16239489674568,9.09619453862729
5.48152779182419,-3.55995738208294,7.90635006666184,1.03353922069073,8.73223174563962
5.4915137917269,-2.45493068754673,8.17656101167202,0.747340233922005,8.56979300120442
5.50149979186244,-1.22822036549449,8.57340452134609,0.248553406409919,8.66450051351439
5.51148579176515,-0.188304025232792,9.09230865776539,-0.274343245401979,9.09839542723287
5.52147179166786,0.515985498726368,9.63347080528736,-0.816307557821274,9.681753912395
5.53145779180341,1.08423414185643,9.98005106449127,-1.2934602355957,10.1217598423045
5.54144379170612,1.73649104788899,10.2939787173271,-1.86313925385475,10.6043711209782
5.55142979184166,2.60044741988182,10.5630383455753,-2.39338464975357,11.1385993713456
5.56141479173675,3.44028388112783,10.4250382089615,-2.47726003468037,11.2540566961643
5.57140079163946,4.37722388327122,9.92655138015747,-2.34602527275681,11.0995651179494
5.581386791775,5.26130710244179,9.16757752597332,-1.55024772763252,10.6831221156535
5.59137279167771,5.87273173213005,8.38582818210125,0.494059828743339,10.2496432821669
5.60135879181325,6.1382239741087,7.70101982653141,3.71301468372345,10.5247317289563
5.61134479171597,6.01529386639595,7.37242560267448,6.67999598622322,11.625780229388
5.62133079185151,5.43249603509903,7.76269742667675,7.69352428078652,12.2049907975611
5.63131679175422,4.83637035280466,7.98482379376888,6.63948472201824,11.4555945537951
5.64130279165693,6.17837738871574,6.4623129183054,-2.28359791338444,9.22760287623522
5.65128879179247,5.63358412027359,2.17679910421371,-13.7210598778725,14.9914378413969
5.66127479169518,-1.690511906147,-4.17045698225498,-0.285186906829476,4.50908788087913
5.67126079183072,-6.53503473937511,-9.97163224339485,2.2326090234518,12.1294959373401
5.68124679173343,-6.41133162975311,-17.0606573367119,8.12905355393887,19.9562700350085
5.69123179186136,-6.48794945061207,-27.1801387667656,7.5473468130827,28.9450492376724
5.70121779176407,-5.4102877253294,-32.5456186938286,6.98191638171673,33.7229249294337
5.71120379166678,-1.38648534357548,-29.8991712284088,7.32120808660984,30.8136799100838
5.72118979180232,2.97390732944012,-21.959026594162,5.50640367150307,22.8333846628299
5.73117579170503,9.29000535786152,-14.5773705768585,-4.06203147768974,17.7568024207597
5.74116179184057,14.1234021091461,-12.6037762498856,-9.30164131700993,21.0913772448391
5.75114779174328,9.23473338246346,-14.6399030399323,-1.4393706317246,17.3689046712587
5.76113379164599,1.16963784277439,-15.8945541357994,2.70248951911926,16.1650349043872
5.77111979178153,-1.79534868210554,-14.5474562215805,3.6620059132576,15.108343612649
5.78110579168424,-2.44417736560106,-13.3669630229473,3.61598247885704,14.061473348791
5.79109179181978,-1.47805040180683,-14.0326252555847,2.65093608051538,14.3571120583819
5.80107779172249,0.0215426042675972,-16.0608664906025,1.88971119448543,16.1716698244591
5.81106379185803,1.31336854308844,-17.9649421012402,1.86338483691216,18.1090111458721
5.82104879175313,2.80465440988541,-18.946463906765,1.79329894065857,19.2366967543756
5.83103479165584,3.87713170140982,-18.1131093764305,1.5512440931797,18.5882554251128
5.84102079179138,3.98620712399483,-15.6181515741348,1.44869854867458,16.1837953927059
5.85100679169409,3.45916044741869,-12.6616122293472,1.05965157017112,13.1683361400561
5.86099279182963,2.57904134809971,-9.77648375988007,0.178825396299362,10.1125203339607
5.87097879173234,1.33931936323643,-6.96643646299839,-0.443279757499695,7.10784849959132
5.88096479186788,0.234439433813095,-4.15888300359249,-0.397693256288767,4.18442703506641
5.89095079177059,-0.241745822131634,-1.39239103138447,-0.173803807497025,1.42386852985044
5.9009367916733,-0.503164601325989,1.26634786605835,0.258017673119903,1.38686143992119
5.91092279180884,-1.18631848722696,3.83234407603741,1.24454009056091,4.20036816330293
5.92090879171155,-2.00691278502345,6.16621342599392,2.28835520803928,6.87651485127159
5.9308947918471,-2.79413029879332,8.20719866752625,2.42640738487244,9.00292879524452
5.94088079174981,-3.08894311130047,9.84201233625412,1.96448027193546,10.5007599301504
5.9508657916449,-2.72963667958975,11.1098407173157,1.6817580395937,11.5632083467533
5.96085254172795,-2.05477970033884,11.9163074111939,1.72470583856106,12.2145451067391
5.97083854186349,-1.35415126428008,12.3297804021835,1.72229620099068,12.5229195723908
5.9808245417662,-0.756780417412519,12.4835458016396,1.29688027203083,12.5735249958711
5.99081054166891,-0.15898959428072,12.7544496417046,0.593133369684219,12.7692235687257
6.00079654180445,0.787637490034103,13.2875823926926,-0.105255144238472,13.311322147093
6.01078254170716,1.94605233326554,13.8382521128655,-0.945142110809684,14.0063426644024
6.0207685418427,2.32762276947498,13.7582271194458,-2.05074424445629,14.1036234061819
6.03075454174541,1.42147420495749,13.0710015249252,-2.93610332608223,13.4719105000512
6.04074054164812,-0.632169089019299,11.7510861468315,-2.64241054773331,12.0610943487786
6.05072654178366,-2.21189467728138,10.323649828434,-1.50636788249016,10.6648660582732
6.06071254168637,-3.34023305118084,9.3794180560112,-0.58162480674684,9.9734110173728
6.07069854182191,-4.22124999046326,8.84631629526615,-0.146169318147004,9.80293981147722
6.08068454172462,-4.90976548075676,8.4468140566349,-0.138451541662216,9.77106102799406
6.09066954185255,-5.38297713518143,8.13076971173287,-0.130215153694153,9.75206721312821
6.10065554175526,-5.75444139003754,7.86066284716129,-0.111149247251451,9.7424827566326
6.11064154165797,-5.78607073366642,7.50419202268124,0.154398031644523,9.47709613755392
6.12062754179351,-5.33194731473923,7.47508458316326,0.815902199596167,9.21803927589299
6.13061354169622,-4.24397928714752,7.92747956514359,1.23368882775307,9.07624815489468
6.14059954183176,-3.16040748864412,8.62234747052193,1.40748386442661,9.2905361645771
6.15058554173447,-2.273971349895,9.05982679009438,1.40534319877625,9.44597251070538
6.16057154163718,-1.36909440860152,9.24446724236012,1.15024160519242,9.41581912767279
6.17055754177272,0.0784098462760448,9.43192605257034,0.722720386236906,9.45989967821174
6.18054354167543,3.04412157207727,9.91037564277649,-0.58389835037291,10.3837930839406
6.19052954181097,5.64662691950798,10.2953048658371,-0.532545105814934,11.7542035943899
6.20051554171369,6.55090934514999,11.0249461627007,0.648053196519613,12.840709640995
6.21050154184923,5.71409911036491,12.0840827393532,1.5557077114284,13.4571992174451
6.22048654174432,3.65473519295454,12.4880469882488,1.44881900131702,13.0922680773771
6.23047254164703,2.90624510407448,11.8981506371498,-0.997940933257341,12.2885367434669
6.24045854178257,6.75226932585239,10.1074829435349,-5.08938843727112,13.1778688401473
6.25044454168528,7.58841473221779,6.55485387682915,2.61137469649315,10.3619218922074
6.26043054182082,1.37723504841328,0.968318792581558,6.00758372783661,6.23902876332621
6.27041654172353,-0.964992603957653,-3.9642040514946,1.25166843116283,4.26764552758881
6.28040254185908,0.790095951855183,-8.59589115858078,-1.31284024715424,8.7313885458072
6.29038854176179,3.74813861578703,-17.9792899990082,-1.03862147435546,18.395166390076
6.3003745416645,6.27890622854233,-35.7099563884735,1.54774088010192,36.2907860279362
6.31036054180004,8.77609708249569,-45.902616891861,4.92811755180359,46.9931533324456
6.32034654170275,9.05404740214348,-38.4908032751083,5.35155185937882,39.9018397874957
6.33033254183829,7.58053151607513,-22.7190102624893,4.20153610289097,24.3160603510766
6.34031754173338,7.69165551066399,-12.5591234028339,2.57048921048641,14.9499351143597
6.35030354186893,8.53797507226467,-10.8533023166657,-3.36913583815098,14.2141572316992
6.36028954177164,6.16624324679375,-13.5973023891449,-6.4087307882309,16.2474926790719
6.37027554167435,2.02785268753767,-16.6682506942749,-4.57940305888653,17.4044161092893
6.38026154180989,-0.682839598059654,-19.5217784714699,-3.16351791501045,19.7882275660155
6.3902475417126,-1.69907222986221,-21.2692212080956,-1.51624909222126,21.3907837292338
6.40023354184814,-1.73562551379204,-21.5094248270988,0.0513242277503014,21.5793972689947
6.41021954175085,-1.53963737010956,-20.303483376503,0.113660809099674,20.3620931937484
6.42020554165356,-1.98396436393261,-17.7300068235397,-0.822270548343658,17.8596020508519
6.4301915417891,-2.97510659337044,-14.094257247448,-1.87124992668629,14.5258708133894
6.44017754169181,-3.57833722740412,-10.5161062538624,-3.25967362225056,11.5766342336253
6.45016354182735,-3.35941484212875,-7.16736959695816,-4.25270567178726,8.98567529748136
6.46014854172245,-2.5411350184679,-3.70768260776997,-4.42707022726536,6.30897997295784
6.47013454185799,-2.22000125706196,-0.573697224855423,-3.77072962582111,4.4131548803785
6.4801205417607,-2.57318243801594,2.03995203852654,-2.71693798899651,4.26197421564873
6.49010654166341,-3.23852248907089,4.54677559554577,-1.46552113428712,5.77139051039788
6.50009254179895,-4.05597493171692,7.05872833013535,-0.313694422021508,8.14708429290988
6.51007854170166,-4.87059410601854,9.5039994174242,0.76903749704361,10.7070122136776
6.5200645418372,-5.20369097828865,11.9712267994881,1.98161729156971,13.2028587045591
6.53005054173991,-5.08749335467815,13.8293994283676,3.25661962151527,15.0910718155626
6.54003654164262,-3.67846845656633,14.6882174134254,4.10095697700977,15.6873423210336
6.55002254177816,-0.556782033964992,14.933298779726,4.64316460669041,15.6483991591068
6.56000854168087,2.82014076054096,15.0822846651077,4.38890428125858,15.9590408677545
6.56999454181641,5.81765856206417,15.252398879528,3.02532715916634,16.6022115136802
6.57998054171912,7.53897067666054,14.8712995827198,1.62182700276375,16.7517746214974
6.58996554184705,7.91293520092964,13.3539202237129,0.360750474706292,15.5264892921871
6.59995154174976,7.74944880545139,10.9544965696335,-0.764100692868233,13.440193516139
6.60993754165247,6.7215924936533,8.43546168744564,-1.19069951355457,10.8514784643697
6.61992354178801,4.78541946977377,6.67453468680382,-0.600029648914933,8.23466382839118
6.62990954169072,2.430641207546,5.91261442065239,0.0334630304574966,6.39281985836725
6.63989554182626,-0.0213889686763287,6.07767371714115,0.97115761578083,6.15481294717382
6.64988154172897,-1.93681665614247,6.87787804305554,1.68705210864544,7.34183968443478
6.65986754186451,-3.2252744525671,7.81493528187275,1.56899974822998,8.59868414143625
6.66985354176722,-4.26306693792343,8.66222197294235,1.10707731306553,9.71768745138706
6.67983954166994,-4.89355758368969,9.34165322899819,0.392124806642532,10.5530636660509
6.68982554180548,-5.19825657606125,9.88118868112564,-0.514903471469879,11.1769802168341
6.69981154170819,-5.53572278022766,10.1520445740223,-1.07942583024502,11.6135005857608
6.70979754184373,-5.80336621284485,10.2673738861084,-1.23035065233707,11.8579841729206
6.71978254173882,-5.9720396733284,10.2264761209488,-1.25739987194538,11.9091194531801
6.72976854164153,-5.46465162813664,10.178470480442,-0.647610123753548,11.5707855226218
6.73975454177707,-4.54255566000938,10.31760029912,1.16851810097694,11.3337161782442
6.74974054167978,-3.68604790985584,10.765964795351,2.77632581949234,11.7132801650294
6.75972654181533,-2.70406066596508,11.2270867466927,2.85355116605759,11.8954686818254
6.76971254171804,-1.23255519881845,11.3677146220207,1.17288129329681,11.4943368044443
6.77969854185358,1.4046171207726,11.0800339508057,-2.16977308988571,11.3775224398182
6.78968454175629,5.19834954679012,10.215445933342,-0.10920380551368,11.4625520325443
6.799670541659,9.03075794219971,7.53705629825592,3.72856184542179,12.3395291680363
6.80965654179454,10.6103937757015,2.25139495790005,-3.82432812809944,11.5010747742668
6.81964254169725,7.25077077269554,-2.23602028906345,1.03221117183566,7.65760559408368
6.82962854183279,6.82644067168236,-7.31177652776241,2.55263707637787,10.323677846564
6.83961354172789,8.96414412260056,-15.2108017873764,1.56899258539081,17.7252957266901
6.84959954186343,9.40726366639137,-26.1370095276833,5.33245719194412,28.285596625193
6.85958554176614,8.37770113706589,-37.1952824807167,5.49113776087761,38.5204816827521
6.86957154166885,5.41667230010033,-38.0687372159958,7.04872432887554,39.0928843485832
6.87955754180439,2.132824241817,-26.3862622976303,5.68528461635113,27.0759346737051
6.8895435417071,0.0676139858365059,-16.4200761508942,3.03751217186451,16.6988009343925
6.89952954184264,1.1438048440218,-14.575815217495,0.305264418125153,14.623811580458
6.90951554174535,3.8943622764945,-17.3276762866974,-1.32000308632851,17.8088975286253
6.91950154164806,5.95059559464455,-21.6857441067696,-1.38689991116524,22.5300815968093
6.9294875417836,7.16992950797081,-24.61866771698,-0.779174230098724,25.6533389988359
6.93947354168631,7.66818361759186,-24.1280442237854,-0.424036132246256,25.3208089266417
6.94945954182185,7.07904974341393,-21.5784710884094,-1.20641273617744,22.742005001166
6.95944454171695,5.75361459374428,-17.8891914224625,-2.78790798425674,18.9973598579259
6.96943041682243,4.23759617418051,-13.7094262576103,-4.19227118968964,14.9492718008666
6.97941641672514,3.08220185637474,-10.0636978232861,-4.99525060415268,11.6503438043751
6.98940241686069,2.11207627415657,-7.0238713234663,-5.04548520326614,8.90239043700314
6.9993884167634,0.126495155096054,-3.86632283091545,-7.40690663337708,8.35623833627824
7.00937441666611,-1.20671109035611,-1.94016287147999,-2.92404519796371,3.71085218557578
7.01936041680165,-0.807655140459537,0.801350380182266,-0.103609153032303,1.14245530079783
7.02934641670436,-0.910815665870905,3.62103798151016,2.35315346717834,4.4134830328017
7.0393324168399,-1.47399871990085,6.76222888827324,3.53831157445908,7.77303419274723
7.04931841674261,-2.65876930296421,9.9494864988327,3.99217479228973,11.045306485971
7.05930441664532,-3.92952421545982,12.6084914445877,4.58671500205994,13.9804567728758
7.06929041678086,-4.77720091581345,14.7221838891506,6.20443608999252,16.6751124209349
7.07927541667596,-3.24945736706257,15.7296182155609,6.03554979085922,17.1583135437491
7.0892614168115,-0.806523411870003,15.4273803162575,4.73832394838333,16.1587826669018
7.09924741671421,1.73912624180317,14.958310829401,3.61895871162415,15.4878173126604
7.10923341684975,3.67990950286388,15.0209520506859,2.35080990314484,15.6427951996757
7.11921941675246,4.51711354762316,14.7383572876453,0.939991371631622,15.4436742428462
7.12920541665517,4.49544522821903,13.7602081561089,-0.463659642934799,14.4833468702454
7.13919141679071,4.37689790099859,12.4957524490356,-1.8674708712101,13.3711821451271
7.14917741669342,4.01222460240126,10.7286817789078,-2.78267355680466,11.7875286254974
7.15916341682896,2.49825738608837,8.9959962451458,-2.50296497941017,9.66613015109853
7.16914941673167,0.548119457066059,7.92556577146053,-1.49573179721832,8.08407331400273
7.17913541686721,-0.879677415266633,7.48633404135704,-0.414431934356689,7.54922403707335
7.18912141676992,-2.10612205445766,7.43896984040737,0.681238630414009,7.76132130930886
7.19910641666502,-3.09963006734848,7.59035717725754,1.65014389872551,8.36326512309976
7.20909241680056,-3.60786361992359,7.86360692024231,2.6327766752243,9.04347868453595
7.21907841670327,-3.49759887367487,8.06003302037716,3.74792256116867,9.55218580719717
7.22906441683881,-2.99980727881193,8.31350221753121,4.68922604799271,10.0050988880712
7.23905041674152,-2.58939676702023,8.73617814123631,4.44977555036545,10.1403297077117
7.24903641664423,-1.94091116890311,9.1826680201292,3.07747906029224,9.87721648542815
7.25902241677977,-0.77464000672102,9.68999350011349,1.34201609909534,9.81310594982473
7.26900841668248,0.788623622953892,9.97685848474503,-0.787536333203316,10.0389165709963
7.27899441681802,2.51408989191055,10.113873950243,-2.26409335613251,10.6647650227886
7.28898041672073,4.09412918329239,10.3696744322777,-2.20254556417465,11.3641211082593
7.29896641685627,5.4230223762989,10.6699815809727,-1.34119222640991,12.0439393563866
7.30895241675898,5.73144546031952,10.6493233680725,-0.205161840319633,12.0954390843456
7.31893841666169,4.72403598457575,10.3723431015015,1.34203071713448,11.4761955300772
7.32892341678962,2.9238300204277,10.2765329647064,2.59106673181057,10.9940683357776
7.33890941669233,1.44429968833923,10.6131197476387,2.43484608650208,10.9842062905068
7.34889541682787,1.04316490709782,10.91702293396,1.37550953507423,11.0526743028594
7.35888141673058,3.02073358654976,10.7934268283844,1.32776526510716,11.2865342200262
7.36886741686612,7.07021050751209,8.67581324100494,-1.31408219575882,11.2687365764997
7.37885341676883,5.6701292181015,1.78495613336563,-4.06537140727043,7.20164414748882
7.38883941667154,0.234804884791374,-5.58291039526463,-6.64253053665161,8.68027843711392
7.39882541680709,-1.85078671842814,-9.48202558100224,1.80529508829117,9.8281896070283
7.4088114167098,-1.50949380397797,-16.1548897182941,2.52302092909813,16.420251763087
7.41879741684534,-1.54287760466337,-26.0344423484802,3.04236360669136,26.2569730931544
7.42878341674805,-2.3727585965395,-31.9654790067673,7.71961689591408,32.9699001592242
7.43876841664314,0.953159886002541,-28.5394363117218,9.66642395853996,30.1471008706533
7.44875441677868,7.59970979869366,-20.6325646734238,10.1878833281994,24.2332680572881
7.45874041668139,11.3205322694778,-14.1396784186363,5.46946271717548,18.9208873751025
7.46872641681694,10.1235662949085,-12.1280573093891,0.598519824743271,15.8093198654416
7.47871241671965,4.72568957716227,-14.296101962328,-5.80880587756634,16.1385531885676
7.48869841685519,0.785122602581978,-17.8784231901169,-6.28735077738762,18.9680049837591
7.4986844167579,-0.340999091863632,-21.5712673187256,-0.583029819577932,21.5818390756462
7.50867041666061,-1.25960105627775,-24.2907418298721,2.36815625309944,24.4383898304608
7.51865641679615,-1.64284160345793,-23.6615954589844,3.1739014005661,23.9299744734339
7.52864241669886,-2.54785376161337,-20.6759884357452,2.88634293615818,21.0313820784738
7.5386284168344,-3.65616512954235,-17.0765945076942,2.23601604983211,17.6061748034547
7.54861441673711,-4.07117301464081,-13.9049220657349,-0.186784626245499,14.4898652811509
7.55859941686504,-3.71414933592081,-12.569950107336,-2.29349798038602,13.3063399917661
7.56858541676775,-2.42735784977675,-10.1845094847679,-2.30149916410446,10.7197573656578
7.57857141667046,-0.794332405775785,-7.03806076169014,-2.95225333571434,7.67339970380433
7.588557416806,0.420258100032806,-3.97549151659012,-2.65457158684731,4.79873941559866
7.59854341670871,0.47975615054369,-1.04866245925426,-1.86618097543716,2.19373889752571
7.60852941684425,-0.326310301423073,1.11667083978653,-0.860464560985565,1.44700775324683
7.61851541674696,-0.592208193987608,3.27229600667953,-0.277338773980737,3.33699692776455
7.62850141664967,-0.748346978276968,5.69657032728195,1.00194956503809,5.83222424332651
7.63848741678521,-1.50164976418018,8.53973917722702,0.994355274438858,8.72759071228325
7.64847341668792,-2.2555514511466,11.4272334301472,0.883411374092102,11.6811639776059
7.65845941682346,-2.92722842216492,14.1692688381672,0.867367199063301,14.4944531287592
7.66844541672617,-2.84205904841423,15.4786335003376,1.09873742938042,15.7756970879631
7.6784304168541,-1.08421645402908,14.8673901343346,2.46337172806263,15.109037527133
7.68841641675681,2.25216182023287,14.57476739645,3.36095616817474,15.1258753098632
7.69840241665952,6.56169336497784,14.9533137989044,2.78387223601341,16.565245485985
7.70838841679506,9.92666247725487,14.7433344376087,1.15476661920547,17.811176946551
7.71837441669777,11.7312056136131,13.148544960022,-1.18481662988663,17.6609515644272
7.72836041683331,10.1410178947449,10.757155380249,-1.51577488303185,14.8611644669046
7.73834641673602,6.90680831193924,8.56528215408325,-0.979358335733414,11.0465923336883
7.74833241663873,4.31927300602198,7.17775308251381,-0.197415485568345,8.37945293488953
7.75831841677427,2.33659210592508,6.87000067412853,0.845115619897842,7.30553162630847
7.76830441667698,0.309490493237972,7.0789760684967,1.58625722050667,7.26112240038434
7.77829041681252,-1.31634170606732,7.5537974613905,2.02098951816559,7.9295025195391
7.78827641671523,-2.41274770438671,8.38278529107571,2.37685223221779,9.04112090700579
7.79826141684316,-3.00739842653275,9.09609940767288,3.11517781376839,10.0741154719198
7.80824741674587,-3.06398047059774,9.79157249987125,3.17115437865257,10.738672564041
7.81823341664858,-3.02094350159168,10.347595345974,2.16132503271103,10.9940963694546
7.82821941678412,-3.09969818741083,10.7512800979614,0.710433193445206,11.2117290334813
7.83820541668683,-2.96561773180962,10.9101618111134,-1.1568692779541,11.365072186404
7.84819141682237,-2.2841639238596,10.9076907777786,-2.81207277238369,11.4936015335438
7.85817741672508,-1.70953830733895,10.6922372531891,-3.18296049177647,11.2861727877502
7.86816341686063,-1.79517414271832,10.283088862896,-2.47241678595543,10.7274140186894
7.87814941676334,-2.31008463084698,9.81037539124489,-1.81224742770195,10.2403221169078
7.88813541666605,-1.64514131337404,8.88619898378849,-1.40754350602627,9.14615772014732
7.89812141680159,0.326266447305679,7.74395768523216,-1.02990342199802,7.81895334964642
7.9081074167043,2.465633431077,6.30985378682613,0.715053663253784,6.81211455929077
7.91809241683222,5.17737792313099,3.29818864703178,1.96098773002625,6.44428144851286
7.92807841673493,8.14830200314522,-2.84705607891083,-1.04474891781807,8.69436910604821
7.93806441663764,10.1680507421494,-10.1036424922943,-1.42010858774185,14.4044977666005
7.94805041677319,8.77638476550579,-14.4107810640335,2.68107350707054,17.0846040509584
7.9580364166759,5.79582213521004,-20.5644188833237,3.50575310826302,21.6512628520344
7.96802216675133,1.96103099942207,-25.964825398922,3.72720119833946,26.3041789332057
7.97800816665404,-2.72618828415871,-24.155848903656,4.33804227590561,24.6932328706568
7.98799416678958,-5.57804960489273,-17.7447324514389,4.91619800269604,19.239521043142
7.99798016669229,-6.15047330617905,-13.2069258999825,5.02746466934681,15.4118984755019
8.00796616682783,-4.20669539362192,-10.2445603895187,4.06542052388191,11.7972432265007
8.01795216673054,-0.375034272372723,-9.28047556579113,2.47797865748405,9.61292128645849
8.02793716685846,2.34238845080137,-10.0089117515087,0.509423534050584,10.2919682491242
8.03792316676118,3.91268043369055,-11.0981766915321,-1.27569288611412,11.836637461388
8.04790916666389,4.51883701443672,-11.5219594931602,-2.20966396450996,12.5721141166123
8.05789516679943,4.14381414413452,-10.7029177772999,-2.48430768370628,11.7428884554054
8.06788116670214,3.07852863550186,-8.55188501358032,-2.63444430112839,9.46321153841826
8.07786716683768,2.03636301755905,-5.88078276336193,-3.07209903717041,6.94032944054678
8.08785316674039,1.15868147626519,-3.73694675266743,-3.17735476613045,5.0401286794648
8.0978391666431,0.414790076315403,-2.1678856086731,-2.97383423924446,3.70344014427186
8.10782516677864,0.0254473748803139,-0.93654853105545,-2.51383086025715,2.68274417600554
8.11781116668135,-0.0680721151828766,0.13357613325119,-1.89730336546898,1.90321739611105
8.12779716681689,-0.153332997858524,1.06936101794243,-1.29831693291664,1.68898515482677
8.13778216671199,-0.54435589671135,1.85826501488686,-0.679328345060349,2.05206218430127
8.14776816684753,-0.906303077191114,2.80361828327179,-0.117129121609032,2.94879296953022
8.15775416675024,-1.25695592209697,3.81681036293507,0.355916471891105,4.03418592428095
8.16774016665295,-1.60421650484204,4.78428364813328,0.773215917348862,5.10497242647252
8.17772616678849,-2.00109261274338,5.55469407141209,1.23284448981285,6.03149263514585
8.1877121666912,-2.10060652211308,6.15586736261845,1.71774355888367,6.72739873063737
8.19769816682674,-1.80551508978009,6.60755717039108,2.33868394732475,7.23803420169349
8.20768416672945,-1.33913751482964,6.7264784270525,2.69618212759495,7.36940970352369
8.21767016686499,-0.719475912451744,6.59189364910126,2.633602886796,7.13488413605995
8.2276561667677,-0.0601973775029182,6.16749805927277,2.29892638921738,6.58230344016679
8.23764216667041,0.430387231707573,5.43203118145466,1.60872807025909,5.68156685515115
8.24762816680595,0.888319234549999,4.38582221388817,0.728889344930649,4.53385346382742
8.25761316670105,1.3581367264688,3.34231699883938,-0.0123937765695155,3.60773778068913
8.26759916683659,2.02650680467486,2.38119729816914,-0.601113649606705,3.184048998044
8.2775851667393,2.75413563609123,1.51261446297169,-1.29308016657829,3.39784077507716
8.28757116664201,3.24946204483509,0.850115574002266,-2.12218377113342,3.97307991719864
8.29755716677755,3.45496507018805,0.495346873998642,-2.70885362863541,4.41814894986248
8.30754316668026,3.3679593783617,0.448886067867279,-2.69037057995796,4.33390619807619
8.3175291668158,3.03978469222784,0.47678605735302,-2.2719321334362,3.82482568733909
8.32751516671851,2.75408593475819,0.389952566027641,-1.9783551299572,3.41334752992021
8.33750116685405,2.80009884417057,0.234014341235161,-1.83749336600304,3.35733497273273
8.34748716675676,3.02835338562727,-0.132173970937729,-1.77069243550301,3.5105193188446
8.35747316665947,3.57646962672472,-0.450610996484757,-2.70000094413757,4.50379732663241
8.36745916679502,4.41421249240637,-0.686527436971665,-4.26318739056587,6.17505939865449
8.37744416669011,5.07575916230679,-1.12532354950905,-4.79384443044663,7.07181932660508
8.38743016682565,5.67503327786922,-1.45376749992371,-3.64146405994892,6.89780422661134
8.39741616672836,6.26278896331787,-1.65615483641624,-1.44605619192123,6.63750351799792
8.4074021668639,6.37517478704453,-1.95174386680126,0.373557558059692,6.67770192028276
8.41738816676661,4.7704465046525,-2.26482776641846,1.51576903581619,5.49401132463616
8.42737416666932,2.55974553644657,-2.84238298416138,2.00103063225746,4.31689261289194
8.43736016680487,0.768715315461159,-2.71263034522533,1.58613910675049,3.23498437276366
8.44734616670758,-1.01558768391609,-2.15295532822609,0.784123313426971,2.50628896173583
8.45733216684312,-2.65160587906837,-2.24674291312695,1.11090080738068,3.64869402107592
8.46731816674583,-3.93037206172943,-2.3856060987711,0.631658334732056,4.6408978930756
8.47730416664854,-3.73737652301788,-1.8480212777853,1.62896528363228,4.47623656805934
8.48728916677646,-3.36599705278873,-1.61569502770901,1.74075703024864,4.11954386070911
8.49727516667917,-3.54548727750778,-1.83604091763496,1.10152421236038,4.14184522605753
8.50726116681471,-3.34479270994663,-1.91510930657387,0.536767380237579,3.89145231875261
8.51724716671743,-2.75501593440771,-1.44120826542377,0.366459038257599,3.13073254844404
8.52723316685297,-2.32728977054358,-0.843577802181244,0.691691697835922,2.57027986594161
8.53721916675568,-2.10218453943729,-0.253898382782936,1.13196481704712,2.40103906125275
8.54720516665839,-1.95973379462957,0.228244893550873,1.27729970097542,2.3503503575759
8.55719116679393,-1.6984483319521,0.548900352716446,0.93525403060019,2.01512243679559
8.56717716669664,-1.24804286509752,0.732225766181946,0.46335441827774,1.51936265674758
8.57716316683218,-0.762608191072941,0.842031798362732,0.0340822505950928,1.13655197960812
8.58714916673489,-0.430255961716175,0.925406076908112,-0.232645508050919,1.04671893657612
8.59713416686282,-0.527621457874775,0.998814945816994,-0.374827719479799,1.19017289419972
8.60712016676553,-1.10661187469959,1.09360708236694,-0.423403902053833,1.61240105312038
8.61710616666824,-2.01510049492121,1.34759785115719,-0.356267341375351,2.45021966190908
8.62709216680378,-2.95107541412115,1.87726905047894,-0.195118077993393,3.5030067445091
8.63707816670649,-3.73591851979494,2.66356694340706,-0.134659037590027,4.5901861732355
8.64706416684203,-4.23856096476317,3.52166104316711,-0.228340860977769,5.51539981359167
8.65705016674474,-4.31804129004478,4.32684485793114,-0.426479464396834,6.12771994633314
8.66703616664745,-3.95200792908669,5.09419543325901,-0.674268091544509,6.48257905798889
8.67702216678299,-3.28147935122251,5.94667094349861,-0.813634283915162,6.8405411182678
8.6870081666857,-2.6576624250412,6.76747208654881,-0.72523951292038,7.30669695271359
8.69699416682124,-2.18687707275152,7.62005284667015,-0.727715224027634,7.96098022636997
8.70697916671634,-1.75646762162447,8.63358757317066,-1.22663825511932,8.89542884285767
8.71696516685188,-1.49981607735157,9.74418374061585,-1.92425084352493,10.0449642281877
8.72695116675459,-1.61795380711555,10.6149382317066,-2.18555823326111,10.9577074689865
8.7369371666573,-1.46079731494188,10.7779609429836,-2.80056837558746,11.2312757116083
8.74692316679284,-0.10627022087574,9.67475857973099,-2.8969304895401,10.0997254020667
8.75690916669555,2.80268243640661,7.7528355127573,-0.713338090181351,8.27468057136446
8.76689516683109,5.4491179150343,5.37120844423771,2.49918416976929,8.04914204855546
8.7768811667338,6.87703428983688,2.55502917230129,4.41318367481232,8.56142306176566
8.78686716686934,5.53318976640701,-1.24530724525452,4.57032174825668,7.28387396985579
8.79685316677205,2.45605189114809,-5.22493917524815,4.33697106599808,7.22090702781579
8.80683916667476,-0.595450328886509,-9.23717751860619,2.04774988532066,9.48015238259625
8.81682416680269,-2.16974882394075,-13.4794201827049,-1.26425514757633,13.7113427314424
8.8268101667054,-1.85533088207245,-14.3986586165428,-1.93687205851078,14.6463338760508
8.83679616684094,1.64102194994688,-9.67620401144028,-2.41255299210548,10.1065468410797
8.84678216674365,5.17660141289234,-4.06306409597397,-2.32637555837631,6.9798076817748
8.85676816664636,5.03906262159348,-1.38022356033325,2.25511729538441,5.69058197346997
8.8667541667819,4.68454242825508,-2.56738726258278,5.57763679146767,7.72311124455216
8.87674016668461,5.20521242380142,-7.29084349572659,7.15105586528778,11.462470730368
8.88672616682015,5.19897344470024,-12.5841693663597,7.29780577540398,15.4482559745573
8.89671216672286,3.96825558722019,-17.3924260139465,6.91549259662628,19.1328924344988
8.90669816685841,2.58250085324049,-21.5924950504303,5.82742750525475,22.5136417420382
8.91668416676112,2.78330067068338,-23.5514994049072,3.17874464929104,23.9274801094509
8.92666916665621,3.43214514166117,-22.0979377269745,0.659434947967529,22.372602139878
8.93665516679175,3.24346367865801,-18.9004778945446,0.0828994846343994,19.1769391092921
8.94664116669446,2.58551304638386,-16.3340659475327,0.532988909482956,16.5460165982329
8.95662716683,2.15001388639212,-14.8132320535183,0.418878157138825,14.9743067450079
8.96661420841701,1.51415900498629,-13.5614262127876,-0.0150787997245789,13.6457020994695
8.97660020831972,0.721199379265308,-12.4524035310745,-0.483793360590935,12.4826494888354
8.98658620845526,0.133950062692165,-11.0043850135803,-1.8816626483202,11.1649042301531
8.99657220835798,-0.307334624826908,-8.28665180325508,-3.40495822012424,8.96419506485662
9.00655820849352,0.253009167462587,-4.69675433814526,-4.466910815835,6.48666379492032
9.01654420839623,1.17864825591445,-1.10597979068756,-4.18079778313637,4.48235129279907
9.02653020853177,1.06173010915518,2.23786333143711,-2.58928742408752,3.58325445362387
9.03651620843448,-0.26681897521019,6.21757829189301,-1.36143996477127,6.37047807931459
9.04650120832957,-2.41859974399209,10.1152059459686,-1.62373670339584,10.5263258990472
9.05648720846511,-3.57035431623459,13.3757654213905,-3.25117586374283,14.2207128881961
9.06647320836782,-1.14338062852621,14.7266546702385,-1.78728566408157,14.8787118758036
9.07645920850337,3.68700773030519,14.4054390478134,0.662900592684746,14.8845603683609
9.08644520840608,8.07265715897083,13.9998621368408,0.57473218202591,16.1707838566313
9.09643120830879,12.9029993247986,13.9486522221565,-1.24702047944069,19.0422517173408
9.10641720844433,16.075326654911,13.2575838375092,-1.85049406528473,20.9189862220025
9.11640320834704,11.8988803696632,11.9694539237022,0.543747201561928,16.8862915497274
9.12638920848258,5.4551259291172,10.8823781812191,1.64910017073154,12.2843023877918
9.13637520838529,1.50719877183437,10.477334536314,1.66193422436714,10.7148594246392
9.14636120852083,-1.31612024277449,10.2554174995422,1.65112856984139,10.4705294105649
9.15634620841593,-3.51315422147512,10.0377396941185,1.82691575288773,10.7905556816551
9.16633220831864,-4.83904340744019,10.1345742630959,2.29029356002808,11.4617355223544
9.17631820845418,-5.48278208971024,10.2268819177151,3.10871430158615,12.0130811123134
9.18630420835689,-5.35437431037426,10.1128857707977,3.99488205313683,12.120184218372
9.19629020849243,-5.20995334625244,9.65866353392601,3.51666050434113,11.5239010857657
9.20627620839514,-5.12697083115578,9.09410784602165,2.526559664011,10.7411419855806
9.21626220853068,-4.67011997848749,8.52324535131455,1.61494599938393,9.85209533617591
9.22624820843339,-4.090673186481,7.95676651418209,0.918963614702225,8.99378866801698
9.2362342083361,-3.34723070651293,7.71814222812653,0.567557648420334,8.43183221728785
9.24622020847164,-2.52651961058378,7.66825261473656,0.053371045589447,8.07392395149879
9.25620620837435,-1.66484964609146,7.84983848154545,-0.69441416144371,8.05443353427516
9.26619220850989,-0.755932351872325,8.05700474739075,-1.58738456368446,8.24660833149653
9.2761782084126,0.36872717320919,8.16031686186791,-2.49702186942101,8.54177084864229
9.28616420831531,1.80094651401043,8.34238570868969,-3.17628297150135,9.10645821238563
9.29614920844324,4.02417718827724,8.73168631017208,-2.74410590708256,9.9983231139618
9.30613520834595,5.76438867330551,9.50557348787785,-1.09590262614191,11.1707254319656
9.31612120848149,6.57001512229443,10.4512454295158,0.996033425331116,12.3848985591134
9.3261072083842,6.79487272381783,11.2422286963463,2.49390705764294,13.3707731192327
9.33609320851974,5.84143860340118,12.1251301932335,3.03924762547016,13.7977611694468
9.34607920842245,3.59064386218786,13.1107649302483,2.69302638530731,13.8577513151758
9.35606520832516,0.338447513133287,13.0718856239319,0.427909108623862,13.0832659030361
9.3660512084607,-0.605254355370998,10.9218644285202,-5.35375333607197,12.1785110014801
9.37603720836341,2.04953284755349,6.47428158402443,-16.30915563941,17.6665068588258
9.38602320849896,2.50121695429087,0.986738106608391,-4.81291044652462,5.51306133738153
9.39600920840167,0.464817537814379,-6.93604146659374,0.214415022544563,6.95490477085492
9.40599520830438,1.04059651762247,-17.1685852432251,-0.615584923624992,17.2111041239244
9.41598120843992,0.674244483411312,-27.687913312912,6.83073135852814,28.5260239104422
9.42596620833501,-4.24017362684011,-38.1014769458771,12.2532076048851,40.2472696521313
9.43595220847055,-6.95805506408215,-40.2207090425491,15.800819760561,43.7696912402398
9.44593820837326,-0.962348785400391,-32.3853605461121,18.8135204422474,37.4658009966061
9.4559242085088,7.25853236675262,-22.4126442289352,18.1422554075718,29.7347329687957
9.46591020841152,12.5835214948654,-14.7193702089787,7.69153622746468,20.8366168582884
9.47589620831423,16.8804169142246,-7.97736859381199,-30.0849208974838,35.4074759095793
9.48588220844977,10.4822730946541,-2.59703966259956,-27.2459901094437,29.3081326816283
9.49586820835248,-2.60122860789299,-5.91409610509873,-0.994931225180626,6.53703381922598
9.50585420848802,-6.2053248667717,-9.75205467760563,-2.80448601007462,11.8942746276471
9.51584020839073,-6.19215108990669,-9.34838688254357,0.499570756405592,11.2242881006593
9.52582620852627,-5.9981048065424,-8.49391922593117,1.64677765667439,10.5278583642369
9.53581220842898,-5.25770112454891,-8.06742039263249,2.09214545488358,9.85412428939961
9.54579720832408,-4.73768923312426,-8.16772352993488,2.66395812213421,9.81091635921937
9.55578320845962,-4.24676577776671,-7.79080733120442,3.11439545631409,9.40378421176649
9.56576920836233,-3.51388044565916,-6.43261841833592,3.58543194651604,8.15973392613988
9.57575520849787,-1.76138132929802,-4.3278885859251,4.1309233725071,6.23679498692284
9.58574120840058,0.343933809399605,-2.56937531590462,2.6181358319521,3.68437446709473
9.59572720853612,2.52396496206522,-0.73313559293747,0.101265004277229,2.63023602143533
9.60571320843883,4.27711633533239,1.46530347168446,-2.91494166791439,5.37937945653969
9.61569920834154,5.03355279028416,3.77075593829155,-5.22940001606941,8.17935685532825
9.62568520847708,4.16556812524796,5.63015648245812,-3.8116092646122,7.97364314533353
9.63567120837979,2.56667477935553,6.8391729837656,-2.27824010968208,7.65195952173123
9.64565720851533,0.897145460397005,7.72566993355751,-1.65911820530891,7.95257940033125
9.65564320841804,-0.698452248573303,8.30675277650356,-1.46043113306165,8.46302761001655
9.66562920832075,-1.91013756528497,8.65452703714371,-1.45687646448612,8.9817566649146
9.67561520845629,-2.25199619784951,8.83574160575867,-1.44999896943569,9.23278471590386
9.68560020835139,-2.13793587774038,8.75348414540291,-1.30314673304558,9.10452886804128
9.69558620848693,-1.55278468832374,8.33831078410149,-1.03018576942384,8.54399495201625
9.70557220838964,-0.399720485955477,7.50007850646973,-0.625402910336852,7.53671565540053
9.71555820852518,0.810822138637304,6.2806615626812,-0.29042645059526,6.33943922824809
9.72554420842789,1.58502755105495,5.00432431340218,-0.0679756361246109,5.24978045811613
9.7355302083306,1.90512387022376,3.93925924479961,0.16889455832541,4.37901652548463
9.74551620846614,1.60383541256189,3.22626614034176,0.354124921560288,3.62028806850689
9.75550220836885,1.18294924847782,2.73633086442947,0.71491391479969,3.06561208075611
9.76548820850439,1.00846197456121,2.24844152927399,1.04423728644848,2.67636252684668
9.7754742084071,0.730925053060055,1.61930568337441,1.26112864136696,2.17872618276725
9.78546020830981,0.337580517232418,0.791350471973419,1.33987192511559,1.59231056983881
9.79544620844536,0.383213576897979,0.0270310932397842,1.3667375421524,1.41970237537643
9.80543220834807,0.144715517610312,-0.681353820562363,1.44621815979481,1.60522041338641
9.81541720847599,-0.339594883024693,-1.44365006268024,1.81127328157425,2.34097438871039
9.8254032083787,-0.859458401352167,-2.35685826301575,2.10592675745487,3.27542014455624
9.83538920851424,-1.00821478351951,-3.2960684466362,2.00885128319263,3.98949216475014
9.84537520841695,-0.987976108342409,-4.08463330507279,1.69635502874851,4.53188111175984
9.85536120831966,-1.0559436314553,-4.82972528457642,1.30776354834437,5.11385459078238
9.86534720845521,-1.16761806830764,-5.46883472621441,0.767886691913009,5.64456687334858
9.87533320835792,-1.12193070262671,-5.76426529705524,-0.115785979628563,5.87357551321258
9.88531920849346,-0.769260056689382,-5.41591859400272,-1.33262254714966,5.63025915077218
9.89530520839617,-0.231885662376881,-4.39286927819252,-2.64121040672064,5.13099053480642
9.90529120853171,0.368756409287453,-3.12211027264595,-3.39761937975884,4.62897086766214
9.91527720843442,0.681669862568378,-2.05840292751789,-3.43346281170845,4.06083283242897
9.92526320833713,0.807894364669919,-1.20715416312218,-2.820961124897,3.17296961003234
9.93524920847267,0.850329582095146,-0.487821507453918,-1.85202720522881,2.09547965636232
9.94523420836777,0.820496064573526,0.311868263483047,-0.975160107985139,1.31202623523852
9.95522020850331,0.732195287570357,1.12088609755039,-0.322939454689622,1.37723835054693
9.96520533342846,0.648212606236339,1.85841879665852,0.129567209109664,1.97248261547063
9.97519133333117,0.632489516437054,2.45567737698555,0.411486107110977,2.56899108301036
9.98517733346671,0.618789490163326,2.77872668623924,0.49745187163353,2.88992747219483
9.99516333336942,0.607304900810123,2.82771758258343,0.424027726873755,2.92311571487637
10.005149333505,0.619554817602038,2.80249269425869,0.318681366071105,2.88779696074156
10.0151353334077,0.624943099915981,2.68090569198132,0.268411172032356,2.76583690131978
10.0251213333104,0.607214780598879,2.39801330566406,0.267049428597093,2.48807013591532
10.0351073334459,0.528345050811768,1.99085530757904,0.288613302111626,2.07989206128316
10.0450933333486,0.410014509111643,1.55654517889023,0.237026315107942,1.62699915969927
10.0550793334842,0.2443878865242,1.28406551420689,0.153190033435822,1.31606111947707
10.0650653333869,-0.0391167032718658,1.18445059418678,0.0692678707838059,1.18711893442368
10.0750503335148,-0.321126160025597,1.1764703142643,0.0266785061359406,1.21980168621279
10.0850363334175,-0.559242907762527,1.10344092965126,0.0226450967788696,1.23727414727717
10.0950223333202,-0.708330973237753,0.946296424269676,0.0754857633635402,1.18444408508975
10.1050083334558,-0.784391262084246,0.775339626073837,0.177837765030563,1.11716044437023
10.1149943333585,-0.843208111971617,0.662249212861061,0.290546939782798,1.11085168418065
10.124980333494,-0.771411320418119,0.688441230654717,0.380285912565887,1.10165517682743
10.1349663333967,-0.646039707809687,0.789204543828964,0.386507350020111,1.09068741978932
10.1449523335323,-0.428771207481623,0.895065459609032,0.299566269926727,1.03669034693499
10.154938333435,-0.019930819272995,1.08174074292183,0.0743835266679525,1.08447829922665
10.1649243333377,0.277729294896126,1.21034849703312,-0.433692662715912,1.31535788711949
10.1749103334732,0.411943067014217,1.2317112994194,-1.43144458472729,1.9328330022854
10.1848963333759,1.49098824352026,1.56400096356869,-3.55268987774849,4.15821480010545
10.1948823335115,2.43265133410692,1.77124324321747,-4.00732375860214,5.01136097744245
10.2048673334066,2.68502447068691,1.62403725028038,-3.78732870161533,4.9184054420681
10.2148533333093,2.63057987630367,1.80212589740753,-4.63915517091751,5.6293311268366
10.2248393334448,0.302899804115295,2.02664552986622,-4.62970957875252,5.06292911056956
10.2348253333475,-2.4476982665062,2.54310143709183,-2.98366106987,4.62177726670744
10.2448113334831,-4.05424678713083,3.25174655199051,0.00487482368946075,5.19719120422261
10.2547973333858,-4.07461731702089,4.45297514677048,1.69038736045361,6.26808610074107
10.2647833335213,-2.46507180601358,5.16436143636704,1.93179550588131,6.03978823559082
10.274769333424,-0.640801333487034,4.97636643648148,2.37642772436142,5.551779713592
10.2847553333268,0.115816969871521,3.61068139314651,4.06262730896473,5.43648547729787
10.2947413334623,-0.450054633915424,1.62184279024601,3.14020857453346,3.56284059443517
10.304727333365,-1.39201154708862,-0.268872517347336,0.288249605298042,1.44674683782866
10.3147133335006,-1.63521566480398,-2.0311549025774,-1.0927211561054,2.82728845958188
10.3246993334033,-0.55539485514164,-4.30743151724339,0.878163498044014,4.43098192843938
10.3346843335312,-0.579840601980686,-6.55647647917271,2.86039299309254,7.17672954907618
10.3446703334339,-3.14924661576748,-8.32390090584755,3.49341957628727,9.56080858888409
10.3546563333366,-4.24583577811718,-10.6963092541695,4.74747776448727,12.4489637416081
10.3646423334721,-3.26280509859323,-14.2914908480644,4.31589477717876,15.2813466520263
10.3746283333749,-1.91111127287149,-18.0088301324844,4.23385366380215,18.5982748093598
10.3846143335104,0.0960086497664452,-21.9468690633774,4.17402261435986,22.3404732297919
10.3946003334131,2.30066330462694,-25.5760767745972,3.80042880356312,25.9590449345175
10.4045863333158,4.75483414649963,-27.1870548534393,3.21991898775101,27.7869083860065
10.4145723334514,6.61081523895264,-25.8644708061218,1.04339477576315,26.7163320997173
10.4245583333541,6.66072473287582,-22.5714405727386,-2.63965884804726,23.68127915316
10.4345443334896,4.98693586349487,-18.5620925080776,-7.59658329248428,20.6670966830054
10.4445293333847,3.07955394476652,-14.4013331329823,-10.1897158455849,17.908443749238
10.4545153335203,3.30688842684031,-11.0826301145554,-6.51965948581696,13.2765266969423
10.464501333423,3.29435579717159,-8.2000101006031,-3.74578832745552,9.59811835530554
10.4744873333257,2.28827261611819,-5.7217209559679,-2.5399404323101,6.66525165791377
10.4844733334612,1.47269142866135,-3.36369383454323,-0.552457835264504,3.7132823642085
10.4944593333639,0.924353578090668,-0.234593215584755,1.86559216082096,2.0952082532875
10.5044453334995,-0.834864427596331,3.1187832069397,3.92451607525349,5.0818927309889
10.5144313334022,-3.60514934241772,6.9042565870285,4.84299144744873,9.17171886620621
10.5244173333049,-5.74539574742317,10.6585175299644,5.05638441324234,13.121760231217
10.5344033334404,-5.39885115623474,12.9631554794312,4.23819171309471,14.6681035852638
10.5443893333431,-2.2450931212306,12.774348886013,2.43101265192032,13.1959939033927
10.5543753334787,2.87347906172276,12.9374885416031,-4.92031268835068,14.1366533745938
10.5643613333814,12.6596931731701,14.6256615614891,-7.86240473270416,20.8804984502497
10.5743463335093,18.4663373351097,13.5993208479881,0.603735577650368,22.9414829239156
10.584332333412,16.5803436541557,10.8923547005653,3.53789876103401,20.1511268731095
10.5943183333147,9.25969514608383,9.32857827007771,3.43421944141388,13.5852195385706
10.6043043334503,3.38599920809269,9.43172958612442,3.13284926891327,10.4993932284066
10.614290333353,-0.256017267554998,10.0113710904121,2.25856189012527,10.2661676278323
10.6242763334885,-2.80795165479183,11.0215161859989,0.943723064661026,11.4126694842468
10.6342623333912,-4.63954050242901,11.5802164721489,-1.46899832725525,12.56123822324
10.6442483335268,-5.32408631801605,11.5160315859318,-2.8987290930748,13.0141272840288
10.6542343334295,-5.54330954253674,11.3330499887466,-2.32444831609726,12.8284590932043
10.6642203333322,-5.62550560712814,11.0048434352875,-1.40264997124672,12.4386622798779
10.6742063334677,-5.24497582912445,10.453514149189,0.377544226236641,11.7016353198243
10.6841923333704,-4.53029404878616,10.0003175139427,2.79141631364822,11.327926535083
10.694178333506,-4.34118486195803,9.48221093773842,5.00194917440414,11.5662312711091
10.7041633334011,-4.59264700233936,9.07542540729046,6.59946813225746,12.1247157673931
10.7141493333038,-4.74452550530434,8.88669950544834,7.40997642159462,12.5056667530847
10.7241353334393,-4.19355143755674,8.97829263031483,6.87839435219765,12.0626664166487
10.734121333342,-2.77806185781956,9.44833918690681,4.90936903953552,11.0041194760444
10.7441073334776,-0.902827930748463,9.93375514984131,1.97578118562698,10.1684955103012
10.7540933333803,1.12998261094093,10.2223596811295,-1.11759820818901,10.3451691096065
10.7640793335158,2.92340697437525,10.4335260272026,-2.95933431386948,11.2322051832837
10.7740653334185,5.01843247532845,10.5887532305717,-4.92388650655747,12.710272137796
10.7840513333213,6.60787467420101,10.2686672902107,-4.9953125846386,13.1932817541823
10.7940373334568,6.35968551278114,9.74278684079647,-2.8938010597229,11.9892276573568
10.8040233333595,5.18511203527451,9.22653090834618,-0.254263833761215,10.5867327121343
10.8140093334951,3.81197179198265,8.95687018632889,1.61837889969349,9.86791785234311
10.8239953333978,1.98843514502049,9.09645141005516,1.10676682591438,9.37679238270699
10.8339803335257,0.453615149706602,8.82869688034058,-0.44955619532615,8.85176570418213
10.8439663334284,1.03156827047467,7.24062409937382,-2.64969617843628,7.77892410832648
10.8539523333311,5.34963280320168,3.74377688527107,-8.15469885706902,10.4467004334031
10.8639383334667,8.52004867851734,-1.90092220723629,-7.03680477976799,11.2125535107234
10.8739243333694,6.35165670096874,-9.45404489994049,-2.08695078849792,11.5791999469162
10.8839103335049,4.25401106268168,-19.2757486867905,0.0514642320200801,19.7396490881905
10.8938963334076,3.36824910789728,-30.4508911085129,6.42027377665043,31.3021051484162
10.9038823333103,0.83835828512907,-37.8580152583122,10.4280144417286,39.2769098722105
10.9138683334459,3.16613746762276,-38.1848371911049,9.65753619074822,39.5142281090076
10.9238543333486,9.86477437734604,-26.9096068096161,8.99572785794735,30.039371362569
10.9338403334841,10.6293890404701,-12.6474970507622,1.36134582459927,16.5769827012294
10.9438263333868,2.60926794469357,-3.54331562161446,-14.9789339590073,15.6119129945655
10.9538113335148,-6.68113619327545,0.512348822951317,-16.9174251115322,18.1961357038734
10.9637973334175,-9.1412217861414,-0.433388607501984,-1.04847425200045,9.21135493212842
10.9737832916435,-8.58797987580299,-1.86528459727764,3.81374583721161,9.58004917977394
10.983769291779,-6.47447629630566,-4.12147076368332,5.19217196345329,9.26628373542439
10.9937552916817,-3.37852968245745,-8.25123112499714,6.87792949855328,11.2606923446313
11.0037412918173,-0.781591176688671,-13.4340960752964,8.49077342391014,15.91160128535
11.01372729172,2.15571521401405,-17.4641514694691,8.38926342129707,19.4941897852771
11.0237132918555,4.11631001114845,-17.5249426317215,6.33436940789223,19.0838114156646
11.0336992917582,3.49322106331587,-12.648633749485,2.4450179028511,13.3479826817039
11.043685291661,1.93270884096622,-6.28110361218453,-0.818932884559035,6.62255820060184
11.0536712917965,1.09357141435146,-1.52653785288334,-3.04812428355217,3.58012260998876
11.0636562916916,0.112691048383713,1.54285626232624,-4.38975271224976,4.65435641021282
11.0736422918271,-0.835865324735642,3.17502991318703,-4.0102520442009,5.18281846573323
11.0836282917298,-1.03205022722483,3.76139805436134,-2.5783028447628,4.67556291308117
11.0936142918654,-1.28298319458961,3.95746455073357,-1.62117094516754,4.46494868742829
11.1036002917681,-1.77656830251217,4.26168290197849,-1.24645271480083,4.7824450295577
11.1135862916708,-2.34887579038739,4.89793890237808,-1.17324389375746,5.55729468395692
11.1235722918063,-2.99636180698872,5.51299114465714,-1.26991466760635,6.40186993795176
11.1335582917091,-3.56898402124643,6.14863728046417,-1.50188248336315,7.26629467778862
11.1435442918446,-3.83487182736397,6.70933731436729,-1.99802399396896,7.98207673545844
11.1535302917473,-3.52247029781342,6.99428616642952,-2.43967120885849,8.20242839555568
11.16351629165,-2.67470413506031,7.03089266002178,-2.520519490242,7.93350567577453
11.1735022917856,-1.43622541442513,7.0060302990675,-2.35223136126995,7.52862513141904
11.1834872916807,-0.17068270996213,6.79835123240948,-2.01899269402027,7.09387366430998
11.1934732918162,1.01517106980085,6.51018173396587,-1.63532705426216,6.78876521059797
11.2034592917189,1.68775216653943,6.1637219274044,-1.26728108167648,6.51505769076526
11.2134452918544,1.95140882134438,5.85677000284195,-1.16479115881026,6.2822360428316
11.2234312917572,2.01289404809475,5.55251890718937,-0.91915364921093,5.97721106323078
11.2334172916599,2.0742029812932,5.10343461871147,-0.546097818799317,5.53584553097047
11.2434032917954,2.09264422237873,4.33087358951569,-0.0965293443202972,4.8109192265236
11.2533892916981,2.18600349873304,3.3579115229845,0.471711258888245,4.03443832576818
11.2633752918337,2.3046043279767,2.03474099993706,1.41356730759144,3.38371756777145
11.2733612917364,2.80407085776329,0.0497317385673523,2.52154626131058,3.77140320956373
11.2833472916391,4.02810885608196,-3.1263980358839,3.72408580183983,6.31417775285822
11.2933332917746,5.08419610977173,-7.17444355845451,5.11597104907036,10.1732418742008
11.3033182916697,4.62017218530178,-10.438566327095,5.86837204813957,12.8353982595938
11.3133042918053,2.72872129797936,-11.8244710421562,6.38749019265175,13.7136452597426
11.323290291708,0.629241241961718,-10.5806115674973,5.51451668322086,11.9480199168048
11.3332762918435,-0.947629589438438,-8.22122496843338,2.84629594087601,8.75145373086203
11.3432622917462,-2.0924866399169,-6.11385102510452,-0.111971767768264,6.46298788271953
11.3532482916489,-2.60494919121265,-3.95970052599907,-2.99632613897324,5.60740215032693
11.3632342917845,-1.11878504678607,-0.478998059034348,-9.81487073063851,9.89003572190794
11.3732202916872,-0.0138771969079971,2.8209225332737,-16.2432516717911,16.4863889735888
11.3832062918227,-2.10307463183999,3.67883946239948,-8.39192565858364,9.40112753643897
11.3931922917254,-3.51291448563337,3.81268164396286,-2.19419924855232,5.62953105009038
11.403178291861,-2.48530609577894,4.62435469865799,0.918130386471748,5.32957467114206
11.4131642917637,-0.622943936884403,5.64821502327919,3.12034032046795,6.48281696589035
11.4231502916664,1.45450424909592,6.21103057980537,4.40614830493927,7.75284633918632
11.4331352917943,3.40396273165941,6.16875345647335,5.53708518147469,8.96101522106646
11.443121291697,5.39944991111755,4.66654060542584,5.92199452400208,9.27365514277224
11.4531072918326,6.82391467452049,2.478659273386,5.01593922257423,8.82435320934272
11.4630932917353,6.18007892847061,0.359980323314667,4.2182527077198,7.49110254244899
11.473079291638,4.66226336717606,-1.2632646292448,3.33047463297844,5.86724795021701
11.4830652917735,3.49129615992308,-2.14249933719635,2.38577917635441,4.74040025361854
11.4930512916762,2.10956109434366,-2.96529204189777,1.11722515583038,3.80675674995539
11.5030372918118,0.151478407233953,-3.93766412436962,-0.241478969827294,3.94796866211911
11.5130232917145,-1.58000303864479,-4.44261271119118,-1.90984038054943,5.08730848120511
11.52300929185,-3.20862918376923,-4.28201776385307,-4.53623014211655,7.01486715990656
11.5329952917527,-4.60128860235214,-3.20622013092041,-6.28982181072235,8.42695453534037
11.5429812916555,-5.30038345992565,-1.68561837136745,-5.49748549818993,7.82034020480909
11.5529662917834,-4.7931146979332,-0.210117940306664,-2.89656913161278,5.60430288176808
11.5629522916861,-3.18870976656675,1.34546829521656,-0.105621764659882,3.46255842781043
11.5729382918216,-1.16974280029535,2.61458130955696,1.48141664385796,3.22473703049206
11.5829242917243,0.483099296092987,3.00672658145428,1.86906949996948,3.5731233481683
11.5929102918599,1.82233445942402,2.60515852153301,1.55428932309151,3.53886551089421
11.6028962917626,2.8554184743762,1.7569011926651,0.797994078397751,3.44628945588655
11.6128822916653,3.45246216952801,0.931262648105621,-0.051573611497879,3.5762277596906
11.6228682918008,3.03602200895548,0.115930990576744,-0.713803455457091,3.12095898826958
11.6328542917036,1.82029085755348,-0.473294684886932,-1.30894717097282,2.2914644577721
11.6428402918391,0.594202386885881,-0.832522471547127,-1.5370809674263,1.8462903462446
11.6528262917418,-0.372374081611633,-1.04252814531326,-0.982962486371398,1.48045352511987
11.6628112916369,-0.798881539553404,-0.966037793755531,0.0328034279868007,1.25400031821804
11.6727972917724,-0.65773881688714,-0.508735243678093,0.763578536510468,1.12893050309564
11.6827832916752,-0.39482051923871,-0.0176498204469681,1.32979249477386,1.38727893292252
11.6927692918107,-0.0269797839224339,0.378440567851067,1.75642756819725,1.79693710921091
11.7027552917134,0.294200170487165,0.665714272856712,1.62845423698425,1.78370189083036
11.7127412918489,0.634499935358763,0.779442617297173,0.906946417093277,1.35376244781264
11.7227272917517,0.982408389598131,0.808209748864174,0.230352193526924,1.2928230254658
11.7327132916544,1.14170598596334,0.628759285211563,-0.33759191930294,1.34640228056214
11.7426992917899,1.12408393979073,0.395882227420807,-0.801671977043152,1.43630268413708
11.7526852916926,0.83191319167614,0.137715377211571,-0.941714546084404,1.26406936910609
11.7626712918282,0.496354349255562,-0.0590381669998169,-0.837216616272926,0.975081949248933
11.7726572917309,0.233901928514242,-0.201559955477715,-0.602465562410653,0.676979528276627
11.7826422918588,0.058927508443594,-0.280973330140114,-0.303717281408608,0.417926609020807
11.7926282917615,-0.0895521542429924,-0.340445945262909,-0.0928613859415054,0.364069041494183
11.8026142916642,-0.158020856827497,-0.302865890264511,-0.0727277048304677,0.349267315573787
11.8126002917998,-0.220942598283291,-0.237646046876907,-0.305210550650954,0.445471385793803
11.8225862917025,-0.286070640385151,-0.148073135018349,-0.578275594711304,0.661940124213093
11.832572291838,-0.080325540304184,-0.0127621328830719,-0.578974410071969,0.584659244328753
11.8425582917407,0.304779976308346,0.175704737305641,-0.447824213504791,0.569481795030662
11.8525442916434,0.591021940112114,0.432126778364182,-0.323597778081894,0.800472365702172
11.862530291779,0.800171581506729,0.652413611412048,-0.140676918849349,1.04197316457941
11.8725162916817,0.937276655584574,0.711312029957771,0.0662436177581549,1.17849079332854
11.8825022918172,1.01099381893873,0.668753655552864,0.348609791211784,1.26129645217782
11.8924882917199,0.94615419074893,0.538228599429131,0.615977271795273,1.25073009769636
11.9024732918479,0.927095922231674,0.397965005636215,0.834802300930023,1.30949527542779
11.9124592917506,0.887534976750612,0.240953816771507,0.873216168880463,1.26818119934288
11.9224452916533,0.775263173729181,0.076382178068161,0.483278184346855,0.916746982069028
11.9324312917888,0.509921936094761,-0.0504988932609558,-0.160834719724953,0.537064545655562
11.9424172916915,0.249901664704084,-0.0933350104093552,-0.565538641400635,0.6252969063631
11.9524032918271,0.184038189053535,-0.0322076332569122,-0.623354776874185,0.650752306582144
11.9623892917298,0.208131933510303,0.122942971587181,-0.438991994261742,0.501146532498555
11.9723755416926,0.236904912292957,0.257476878762245,-0.133356351032853,0.374435838197253
11.9823615418281,0.248084203898907,0.343826805353165,0.256443091034889,0.495505502737402
11.9923475417309,0.216939009726048,0.414898542165756,0.539611465930939,0.714411553935352
12.0023335418664,0.189487063139677,0.412232796549797,0.465416109971702,0.649964138295151
12.0123195417691,0.0572921884059906,0.389590623378754,0.0214358925819397,0.394363723189365
12.0223055416718,-0.123748133182526,0.33383157491684,-0.757585213556886,0.837073758206318
12.0322905417997,-0.267173901200294,0.265524401664734,-1.75291046798229,1.79292504308571
12.0422765417025,-0.209527663886547,0.210608521699905,-2.29270962953567,2.31187699428667
12.052262541838,0.0416321754455566,0.212141661643982,-1.86858768939972,1.88105217248581
12.0622485417407,0.256675225496292,0.262537059187889,-0.901935938000679,0.973805070374848
12.0722345416434,0.323178532719612,0.302422671318054,-0.155770446248353,0.469220916053792
12.082220541779,0.27950626373291,0.285604909658432,0.204339137077332,0.448830033340507
12.0922065416817,0.157177834510803,0.213618668317795,0.427596392221749,0.503166455317154
12.1021925418172,-0.131213273406029,0.0891074734926224,0.4094583292678,0.439104985575137
12.1121785417199,-0.179504842758179,0.0238262343406677,0.293255443163216,0.344656978692365
12.1221645418555,-0.205437536537647,0.0575126284360886,0.581069942526519,0.618994799619558
12.1321505417582,-0.317245070636272,0.0630774235725403,0.775465925931931,0.840220565380918
12.1421365416609,-0.314595112502575,0.165283244848251,0.89940058529377,0.967062587770228
12.1521225417964,-0.297920315265656,0.366460207700729,0.938680425882339,1.0507951941319
12.1621075416915,-0.335591148287058,0.580871758460999,0.855914184674621,1.08748448729783
12.1720935418271,-0.320729426443577,0.782967318892479,0.571536020860076,1.02105759415474
12.1820795417298,-0.285155404955149,0.990094408392906,0.0467314956709743,1.03139923172052
12.1920655418653,-0.262492035627365,1.19908500552177,-0.574673709869385,1.35534379109139
12.202051541768,-0.27330192938447,1.35355967223644,-1.04100677289069,1.72930992945579
12.2120375416707,-0.308283043205738,1.49639253258705,-1.44442598819733,2.10252122027111
12.2220235418063,-0.24410809725523,1.64106960475445,-1.86375204205513,2.49524946349241
12.232009541709,-0.212538102865219,1.80796141862869,-2.21995564877987,2.87090578371515
12.2419955418445,-0.0191835451126099,2.17499699234962,-2.88274689853191,3.61126149788801
12.2519815417472,0.58119627892971,2.60834759294987,-3.27050558924675,4.22344327410507
12.2619675416499,1.11090109974146,3.08299239993095,-2.97722270071507,4.42750476014334
12.2719535417855,1.68243456244469,3.83155294775963,-3.0387909579277,5.17161817368385
12.2819395416882,2.1115894934535,4.3840095770359,-4.65469707012177,6.73383657174763
12.2919255418237,1.72160506010056,4.58096835851669,-5.45521422207356,7.32861223516489
12.3019105417188,-0.179863277077675,4.42141538500786,-3.50679625153542,5.64613892452251
12.3118965418544,-2.2922044301033,3.94985556900501,0.326600834950805,4.57845260658835
12.3218825417571,-3.32370472669601,3.42058607339859,4.39450182080269,6.48529632698676
12.3318685416598,-2.910627592206,3.58852219998837,5.5174806368351,7.19665457960645
12.3418545417953,-1.62357327371836,4.06749453127384,3.95287507116795,5.89963755372617
12.351840541698,-0.167932325899601,2.49905202269554,2.31434798195958,3.41023003033829
12.3618265418336,1.28502387285233,-0.014201717376709,-0.160526096373796,1.29508944486234
12.3718125417363,2.56553866535425,-0.972540482282639,-2.07828989267349,3.44196346742597
12.381798541639,3.14781521737576,-1.18583638429642,1.30518682658672,3.60811047854124
12.3917845417745,3.02465297520161,-1.80369295120239,3.74509309351444,5.140773887432
12.4017705416773,2.61817149996758,-3.00603193223476,2.47834761679172,4.69395961747806
12.4117565418128,1.94759029716253,-4.4051349824667,1.99273577213287,5.21241959524476
12.4217425417155,0.441415372788906,-5.57816187143326,2.4834998908639,6.12196938110337
12.431728541851,0.164448554813862,-7.07527653515339,2.81733117341995,7.61734443994732
12.4417135417461,0.545788756906986,-9.08850972175598,3.20361051857471,9.6520471758245
12.4516995416489,0.0466166344285011,-11.2455522537231,4.02245752215385,11.9433991442702
12.4616855417844,-0.238154754638672,-13.7466905629635,3.91744386792183,14.2959639611796
12.4716715416871,-0.548202195167542,-16.5323005914688,2.26900735616684,16.6962835048943
12.4816575418226,-1.08050317972898,-18.8212586474419,1.49181270092726,18.9111810665003
12.4916435417254,-0.9923271676898,-20.3244281029701,0.665593235492706,20.3595212437737
12.5016295418609,-0.847006901800632,-20.5827884960175,0.147693066000938,20.6007382441803
12.5116155417636,-0.355365408360958,-19.8653234410286,-0.0423841273784637,19.8685469122529
12.5216015416663,0.669268502891064,-18.597216732502,-0.515459030047059,18.616393005528
12.5315875418019,1.72057419598103,-17.0952518033981,-0.886982853412628,17.204497910945
12.5415735417046,2.52413657784462,-15.4109426236153,-1.34106885015965,15.6737641832727
12.5515595418401,3.11419811278582,-13.0803617477417,-1.82754842162132,13.5695993518907
12.5615455417428,3.29757176578045,-10.2522237503529,-2.43671894967556,11.0417240781266
12.5715315416455,3.30493399500847,-7.08677216112614,-3.22208304226398,8.45734872795962
12.5815175417811,3.44263241529465,-3.70420176029205,-3.32206399798393,6.05053202904416
12.5915025416762,3.43749739050865,-0.730295600295067,-2.18015321329236,4.1355517173641
12.6014885418117,2.87486192822456,2.12822569906712,-0.335661826506257,3.59260971917328
12.6114745417144,1.30460283592343,5.12552423000336,1.30224158406258,5.44690924608743
12.62146054185,-0.358978695273399,8.48970689177513,1.61584647059441,8.64956349352074
12.6314465417527,-2.17709000319242,12.1034685981274,0.789672321081162,12.3230375866723
12.6414325416554,-3.90805674791336,15.2660626530647,-0.634530633240938,15.7711193514199
12.6514185417909,-4.55857556909323,16.4151527953148,-0.600100948400796,17.0469344358725
12.6614045416936,-1.21043912887573,15.9595096850395,-0.22035575710237,16.0068631821251
12.6713905418292,4.65961750209332,16.5241928422451,-4.80151597738266,17.8273817492805
12.6813765417319,10.5421298718452,15.9702241230011,-8.62707669854164,20.9907363647934
12.6913625418674,12.1087053644657,12.3228456044197,-4.26091867089272,17.7940635413547
12.7013485417701,9.24203889369965,7.54921032071114,0.794101002216339,11.9597849387315
12.7113345416728,5.39138718545437,4.69222800850868,3.39354445517063,7.91202903410587
12.7213205418084,2.2582148578763,4.2595106613636,4.24054170906544,6.42068216040376
12.7313065417111,-0.569546067193151,5.014677978158,4.00386103749275,6.44222641288169
12.741291541839,-2.61340280324221,6.71513599812984,3.36273138284683,7.95178521079113
12.7512775417417,-3.88292599976063,8.78620282530785,2.87692365646362,10.0275203381586
12.7612635416444,-4.85066182494164,10.078134598732,1.53343113541603,11.2893369237156
12.77124954178,-5.96035225868225,10.4403204917908,0.133330550193787,12.0226398122251
12.7812355416827,-6.73266536593437,10.8326008343697,-0.605411353111267,12.7687331663292
12.7912215418182,-7.29816011667252,10.9695683526993,-1.48179203510284,13.2585926315135
12.8012075417209,-6.68511171519756,10.7847518992424,-1.55963718652725,12.7841331472448
12.8111935418565,-5.23783462464809,10.6037946081162,-0.76212667286396,11.8514222231666
12.8211795417592,-3.66166151225567,10.4911140847206,0.857366706132889,11.1447888018456
12.8311655416619,-2.53452649533749,10.3800275123119,2.30381466150284,10.9305241277112
12.8411515417974,-2.04005290299654,9.94380768299103,3.15305724620819,10.629341328662
12.8511375417002,-1.79966392725706,9.35107309341431,3.25403398275375,10.0633043981768
12.8611235418357,-1.35808921784163,8.97590111911297,2.66820846319199,9.46205810734432
12.8711095417384,-0.60135499343276,9.01950965344906,1.72113845229149,9.20192913408616
12.8810955416411,0.334299498349428,9.32208786070347,0.620396597385407,9.3486881526404
12.8910815417767,1.53996803015471,9.89749071836472,-0.732084263563156,10.0432948489513
12.9010665416718,3.03106210827827,10.6143149185181,-2.81349539995193,11.3915220694719
12.9110525418073,4.27646934092045,11.1242014789581,-4.83577189028263,12.8615993695627
12.92103854171,3.99102406024933,11.0316985273361,-5.12631945133209,12.8025699203177
12.9310245418455,2.75095065772533,9.72848396658898,-4.76995738506317,11.1787129520682
12.9410105417483,3.02474886953831,7.18815878748894,-4.26679161429405,8.88955809687623
12.950996541651,7.43123689770699,3.07875433802605,-3.10579654097557,8.62252760260539
12.9609825417865,7.58783936619759,-5.13264496922493,3.4869548946619,9.80194904418169
12.9709682085086,4.31018906414509,-17.7964206683636,-10.8557499611378,21.2870295154767
12.9809542084113,1.53723942697048,-24.554743616581,-4.2724406093359,24.9710289714332
12.990940208314,-2.4692306381464,-25.3350451898575,2.86812476634979,25.6161619762179
13.0009262084495,-7.4374232518673,-26.7104108834267,1.73558107495308,27.7808127285116
13.0109122083522,-8.84603036642075,-24.2796882534027,6.82464382231236,26.7269766009455
13.0208982084878,-4.92604412913323,-17.6167743229866,11.0758496832848,21.38436565615
13.0308842083905,1.38226686984301,-11.833933006525,12.0870882081985,16.9720456473332
13.0408692085184,6.32707909941673,-9.32875193238258,11.7328779172897,16.2701557081742
13.0508552084211,8.24723747670651,-8.98612439095974,9.93459948778153,15.7309765923678
13.0608412083238,8.06132408559322,-10.012023639679,4.83795348644257,13.7343131357719
13.0708272084594,6.40264500617981,-9.85836465954781,-12.3115487837791,17.0222046248761
13.0808132083621,1.09689380228519,-9.00884900987148,-11.7108175420761,14.8157275892867
13.0907992084976,-1.6998513713479,-10.0465011620522,-0.626333421617746,10.2085245671852
13.1007852084003,-0.0278643214702606,-9.26288304805756,-3.4062527936697,9.86936354973236
13.1107712085359,2.2050230294466,-7.47835551559925,-2.68803754091263,8.2470281677365
13.1207572084386,2.6609298491478,-7.03405366480351,-0.0652905946969986,7.5208192029311
13.1307432083413,1.4215294611454,-6.09828105926514,0.924290428161621,6.32962010568466
13.1407292084768,-0.436323909759521,-4.25185899496079,0.672553103193641,4.326778379334
13.1507152083796,-2.00741345286369,-2.04419010043144,0.349327354207635,2.88625216116641
13.1607012085151,-3.39128012090921,-0.00738620281219483,0.527380260229111,3.43204973060492
13.1706872084178,-4.19600375980139,1.89348396420479,0.763555732369423,4.66634186825208
13.1806732083205,-4.46714061141014,3.67291272461414,0.869742264971137,5.84825484501312
13.1906582084484,-4.29069473952055,5.33697942852974,0.9228169298172,6.90977581794491
13.2006442083512,-3.73336971849203,6.80806872010231,0.949972495660186,7.82242269984815
13.2106302084867,-2.90769755244255,7.90306919395924,0.958239946961403,8.47534256162785
13.2206162083894,-2.03455271959305,8.87628970742226,0.680688407421112,9.1318815392498
13.2306022085249,-1.09412324532867,9.55179163455963,0.168362315520644,9.61572540036889
13.2405882084277,-0.215843680053949,9.74365222871304,-0.308959785327315,9.75093859058056
13.2505742083304,0.596493764519691,9.37870937347412,-0.971970963478088,9.44778925871268
13.2605602084659,1.69521818384528,8.19959143996239,-1.57763915553689,8.52032920597716
13.2705462083686,2.92706820845604,6.1736621940136,-2.22141803741455,7.18446457849835
13.2805322085042,4.50580590963364,3.68705772399902,-2.76609728515148,6.44577192788518
13.2905182084069,6.38749136209488,0.558400323987007,-3.10760099172592,7.12523969747274
13.3005042083096,8.01248930990696,-2.77662812054157,-3.02522307872772,9.00342286784434
13.3104902084451,8.32554397344589,-5.38159602284432,-2.33249408483505,10.1841438944403
13.3204762083478,6.7244055891037,-6.69001109719276,-1.32106786429882,9.57700889158063
13.3304622084834,3.9974112662673,-6.18888951301575,-0.272773779630661,7.37265595093458
13.3404482083861,1.17937886551023,-4.06284541010857,0.522194876298308,4.26266757133191
13.350433208514,-1.21790339201689,-2.11942271590233,1.3495139837265,2.79220868010298
13.3604192084167,-3.03403190910816,-0.731582572460175,2.25458227515221,3.85015635023365
13.3704052083194,-4.35498926103115,0.464143792390823,3.26478350400925,5.46261587993907
13.380391208455,-4.49671056568623,1.48396602988243,3.7942863035202,6.06788016052395
13.3903772083577,-3.24813589632511,2.04060283362865,3.14253927469254,4.95883048899578
13.4003632084932,-1.5249199283123,1.77911534965038,1.96111753821373,3.05558737623637
13.4103492083959,0.315002371072769,0.804455836415291,0.846132377609611,1.20926245578178
13.4203352085315,1.81362035393715,-0.04028848528862,0.00737092696130276,1.81408276570454
13.4303212084342,2.83098325252533,-0.352481269240379,-0.89426395252347,2.98971858843389
13.4403072083369,3.31034617781639,-0.0899576586484909,-1.60408479630947,3.67961577220833
13.4502932084724,3.00818341523409,0.455001085996628,-1.78465324759483,3.52720578675222
13.4602792083751,2.37688497662544,0.929292721152306,-1.41579451203346,2.91849982936413
13.4702652085107,1.85717246264219,1.09839536726475,-0.571541429534555,2.23208905389089
13.4802512084134,1.52211852729321,0.943320776224136,0.391516696214676,1.83302597401133
13.4902362083085,1.23531552314758,0.441628503799439,1.21434039115906,1.78764167625893
13.500222208444,1.00710074275732,-0.18939716219902,1.53728152692318,1.84752745152289
13.5102082083467,0.703476468622685,-0.452408430576324,1.40062215685844,1.63134758903343
13.5201942084823,0.251719710230827,-0.340159431695938,0.903707132712007,0.997876662321026
13.530180208385,-0.184042720645666,-0.128358662724495,0.314783648662269,0.386570064521569
13.5401662085205,-0.470642095506191,0.169879156351089,-0.273330434560776,0.570151239832204
13.5501522084232,-0.696307489871979,0.424399682879448,-0.899156244769693,1.21385384778742
13.560138208326,-0.750401105135679,0.450529135465622,-1.46193255186081,1.70391464184169
13.5701242084615,-0.604565553367138,0.214820271134377,-1.73820121228695,1.85283315805935
13.5801102083642,-0.236512271761894,-0.0287870121002197,-1.50566036939621,1.52439492741545
13.5900962084997,0.177283193171024,-0.111515758037567,-0.901727192401886,0.925730535517002
13.6000822084025,0.437081708908081,-0.0554011988639832,-0.2493428170681,0.506242583670152
13.6100682083052,0.473278605043888,0.0618705582618713,0.25028955437243,0.538948480840121
13.6200542084407,0.284720225930214,0.101962577104568,0.62133098244667,0.691023996639554
13.6300402083434,-0.0173945894837379,0.0467215919494629,0.920508449077606,0.921857518123522
13.640026208479,-0.182089165896177,0.00864218473434448,1.0208823376894,1.03703032699142
13.6500112083741,-0.227987762242556,-0.0487815660238266,0.914298706054688,0.943557197423336
13.6599972085096,-0.275045422911644,-0.157753785252571,0.662611155509949,0.734567753738475
13.6699832084123,-0.17048434317112,-0.172053735852242,0.33811349093914,0.415918419936234
13.679969208315,-0.061643393933773,-0.0980496203899384,0.0782684898376465,0.139784092713553
13.6899552084506,0.00476548075675964,-0.0229088062047958,-0.12862591702491,0.130736948637602
13.6999412083533,0.146435329914093,0.113865169286728,-0.214232662506402,0.283379985722927
13.7099272084888,0.200588148236275,0.241585316061974,-0.19968709230423,0.372120954774841
13.7199132083915,0.21542808920145,0.311144378185272,-0.177661727294326,0.418071495127916
13.7298992085271,0.274817966222763,0.337772598266602,-0.112777002453804,0.449815401004737
13.7398852084298,0.366561218351126,0.306647284626961,-0.0640323104336858,0.482182352173559
13.7498712083325,0.367983992099762,0.252065280675888,-0.0263335935026407,0.446813811682958
13.759857208468,0.367996271252632,0.138510598540306,-0.00351424969732761,0.393215960401876
13.7698432083707,0.355433236062527,0.0516431933641434,0.0272000046819448,0.360193899134097
13.7798292085063,0.378295556902885,-0.0222813999652863,0.107621439322829,0.393937004302458
13.789815208409,0.385621094852686,-0.0208178418874741,0.116916794590652,0.403492934502686
13.7998002083041,0.361815764307976,0.0463111174106598,0.153207501992583,0.395636077177494
13.8097862084396,0.291321147680283,0.129569621086121,0.214100478887558,0.38405118520067
