Time (s),Linear Acceleration x (m/s^2),Linear Acceleration y (m/s^2),Linear Acceleration z (m/s^2),Absolute acceleration (m/s^2)
0.0233300416730344,-0.509669044017792,-0.0906487995386124,-2.39205908596516,2.44743261603589
0.0333170415833592,-0.846547310650349,-0.318140571713448,-1.629451187253,1.86358980040665
0.0433040417265147,-1.29475758656859,-0.573313939869404,-0.858850729465485,1.65611311725042
0.053290041629225,-1.68293727681041,-0.742756309211254,-0.303697364330292,1.86445619461877
0.0632770415395498,-1.87007916793227,-0.780203047692776,-0.0709974771738052,2.02754865089063
0.0732640416827053,-1.85313627585769,-0.68136463791132,-0.0232818585634232,1.97456675542608
0.0832500415854156,-1.6862940171361,-0.408107878267765,0.0460263580083847,1.73558577378496
0.0932370417285711,-1.48994568496943,-0.0134146821498871,0.253779684305191,1.51146360393568
0.103224041638896,-1.16947909086943,0.388560928702354,0.658408176898956,1.39719800554618
0.113210041541606,-0.845258584320545,0.888977046310902,1.1157510727644,1.65820466758785
0.123197041684762,-0.686158185303211,1.24805368244648,1.42433846354485,2.01424703258069
0.133183041587472,-0.351548419073224,1.22547699809074,1.34889008581638,1.85604003928151
0.143170041730627,0.254057207778096,0.711928034126759,1.16956416785717,1.39257564725764
0.153157041640952,0.89072550997138,0.139388265609741,1.88978033781052,2.09382204303009
0.163143041543663,1.33758127838373,-0.60668663084507,3.07345383703709,3.40636328548891
0.173130041686818,0.978215716704726,-1.38029708907008,4.38310150444508,4.69826615261121
0.183117041597143,-0.196014163792133,-2.08537496387959,5.84542640447617,6.20936551851557
0.193103041732684,-1.24771790608764,-2.83072772920132,6.16069950163364,6.89376804073578
0.203090041643009,-2.39250610560179,-3.81297780543566,5.67887899160385,7.24655447860336
0.213077041553333,-3.24297865211964,-4.70419901311398,4.64181273043156,7.36157756988831
0.223063041688874,-3.31454009324312,-3.69635742813349,4.97596180915833,7.02918417687543
0.233050041599199,-0.0370938590168953,-2.34709005072713,3.96051972091198,4.60390313976432
0.243037041742355,2.28464398026466,-1.03033655449748,2.92077192664146,3.84864913697653
0.253023041645065,3.67558636397123,0.474664979875088,2.43402572214603,4.43392863927687
0.26301004155539,3.71445017516613,1.34708914339542,2.69859527349472,4.78478899369382
0.272997041698545,4.027038230896,2.09285121381283,2.6811717402935,5.27121855145509
0.282983041601256,4.05715548455715,1.92438196733594,4.22179202735424,6.16338255378585
0.292970041744411,3.20082490503788,0.316810330152512,2.83302334606647,4.28621862920684
0.302957041654736,3.50865829735994,-0.664270449131727,-1.37416642963886,3.82626079267591
0.312943166587502,3.33104649066925,-1.26437735438347,-4.36075052261353,5.63122241948867
0.322930166730657,2.3905171751976,-1.57463924154639,-5.49664116024971,6.19734823537324
0.332917166640982,1.0924806162715,-1.87401361316443,-4.6856072062254,5.16336671274527
0.342903166543692,0.859108884036541,-2.57623322278261,-2.97251393795013,4.0262743081051
0.352890166686848,2.39886466026306,-3.34915882587433,-2.21526208877563,4.67747823310355
0.362877166597173,1.3398649084568,-3.90838886976242,-1.79325567126274,4.50405455481089
0.372863166732714,0.160666575729847,-3.79213686704636,-1.13789857149124,3.96243976938082
0.382850166643038,-1.04135460913181,-3.34993387430906,-3.35162108838558,4.85178733090336
0.392836166545749,-5.97754891991615,-2.51479418903589,-5.85530293643475,8.73726807306614
0.402823166688904,3.17096434414387,-4.49266253829002,-5.32610653102398,7.65548446112998
0.412810166599229,4.64934102058411,-2.599620038867,-4.15091032505035,6.75310689969991
0.42279616673477,2.54819085359573,-0.910879254341126,-4.02359889864922,4.84895099372526
0.432783166645095,0.527294890880585,-1.85332265585661,-4.7457762247324,5.12203443407944
0.44277016655542,-3.12335222125053,-3.14982139706612,-3.8123916220665,5.84901990177919
0.452756166690961,-4.39847032606602,-5.22906847894192,-3.12507422626019,7.51370662764943
0.462743166601285,-6.2688993036747,-7.85637099087238,-4.9650193297863,11.2104005535478
0.472730166744441,-6.6979030841589,-7.7775680655241,-4.36609253883362,11.1541577358537
0.482716166647151,-7.92760060250759,-6.77290064156056,-2.81049840956926,10.7989784574061
0.492703166557476,-9.40500898003578,-7.35585108518601,-1.65564378976822,12.0542065462885
0.502690166700631,-10.2635638403893,-8.11348066449165,-1.60411871016026,13.181142136974
0.512676166603342,-10.3325960683823,-9.05537764370441,-1.10967084556818,13.7838229518503
0.522663166746497,-10.00438834548,-9.05097293615341,-0.0428823101520538,13.4910984041582
0.532650166656822,-9.1273428350687,-8.14685598671436,1.16544714331627,12.2897484409164
0.542636166559532,-6.81140572607517,-6.5382957315445,1.84665829181671,9.62053563400074
0.552623166702688,-4.66984837532044,-5.10255636692047,1.23454018235207,7.02621198000213
0.562610166613013,-2.7540672236681,-4.85149388372898,2.65703472644091,6.17913527233832
0.572596166748554,-0.449862552881241,-5.0026531791687,5.99012628078461,7.81732230417027
0.582583166658878,3.75851713120937,-4.03391543358564,9.63764045476914,11.1032895254658
0.592570166569203,7.99797535121441,-2.68368194997311,12.2775413775444,14.89656943073
0.602556166704744,11.9742205739021,-0.45628630399704,9.96877061605453,15.5873841018687
0.612543166615069,16.0583486795425,2.34624498188496,7.32312889695168,17.8045961670057
0.622530166758224,19.0533065700531,6.02742099165917,3.81168761730194,20.3442192662932
0.632516166660935,21.8065616154671,8.83352258741856,2.03572420924902,23.6157029081863
0.64250316657126,23.7140730500221,10.726120698452,0.0865142333507538,26.0271859902702
0.652490166714415,23.6639249897003,12.3915690994263,-3.09194214820862,26.890378147432
0.662476166617125,23.2873362350464,14.1683940947056,-6.40502072989941,28.0012090934915
0.67246316652745,22.3328297352791,15.0289101111889,-10.2760663568974,28.8135551934592
0.682450166670606,18.5540502476692,13.5866230344772,-14.2527881276608,27.0553335866703
0.692436166573316,15.0913162744045,9.81581447124481,-14.9952289795876,23.4297872969062
0.702423166716471,11.4811166918278,5.34289681077004,-14.9810962593555,19.6162134968495
0.712410166626796,7.24909203708172,1.64413413047791,-14.148762652874,15.9824903256172
0.722396166529506,3.0723498827219,-2.81866609275341,-14.7724909937382,15.3496157119445
0.732383166672662,-0.380639705657959,-5.5728210246563,-8.58651397883892,10.2435073616009
0.742370166582987,-2.00007695138454,-6.16841373324394,2.49403131097555,6.94764909707295
0.752356166718528,-1.6889220482111,-9.74694771945477,1.67755199119449,10.0334255473332
0.762343166628853,-0.0418245488405228,-10.0928040933609,5.74849828004837,11.6151485670898
0.772330166539177,-1.79854155421257,-8.45044751644135,9.8873118853569,13.1302608987285
0.782316166674718,-4.46161089956761,-7.18452240407467,3.26004959821701,9.06373308171783
0.792303166585043,-3.75733131587505,-6.32927063584328,-0.623998336046934,7.38691947447599
0.802290166728199,-2.9414003187418,-4.58088825166225,-0.331677606850862,5.45402448144468
0.812276166630909,-3.27942434728146,-2.08268933773041,0.254667145460844,3.893208738562
0.822263166541234,-0.728344969153404,-0.62212328016758,0.758924152851105,1.22208413769196
0.832250166684389,4.83230683028698,1.14758039116859,0.273770729899406,4.97424169786537
0.842236166587099,6.02912253141403,-0.0759208327531815,0.171898199915886,6.03205035313736
0.852223166730255,-1.38555563628674,-10.5993016076088,3.6425159740448,11.2930457190023
0.86221016664058,-0.0108196878433228,-11.7998729753494,4.80567510187626,12.7409431552307
0.87219616654329,3.81275648832321,-6.20891622662544,1.43901614427567,7.42687822789559
0.882183166686446,5.44210944235325,-3.74555326938629,-1.5055007404089,6.77585839253836
0.89217016659677,3.23781322181225,-3.90193939089775,1.93027347564697,5.42535908123766
0.902156166732311,-0.0688778614997864,-4.65213306605816,3.63585248708725,5.90478700140615
0.912143166642636,0.0817604470252991,-1.92938762247562,-3.41639858990908,3.92441087216829
0.922130166552961,1.60014260351658,1.66153719842434,0.0562373507022858,2.30744985924952
0.932116166688502,-1.86613653659821,0.75887679040432,-3.55439521819353,4.0855948065561
0.942103166598827,-4.70716238200665,-1.54203940629959,-3.18736900001764,5.8902108929505
0.952090166741982,-3.28058677375317,-0.712289684414864,-0.186987232267857,3.36222700002234
0.962076166644692,-8.93490629017353,-1.9550779491663,0.950224876105785,9.19553193223041
0.972063166555017,-12.3925409066677,-3.86073289275169,-1.253334595263,13.0403671804244
0.982050166698173,-6.28366703152657,-2.61163548231125,-1.09183683782816,6.8918226135036
0.992036166600883,-4.17558674454689,1.79155062317848,0.504265632033348,4.57159295260382
1.00202316674404,-1.12083698093891,6.83731181502342,0.0278871256113052,6.92862800888271
1.01201016665436,0.0689106059074402,11.3428405666351,-2.4592400854826,11.6065775571335
1.02199616655707,-2.00153407752514,13.9540772688389,-5.24360465705395,15.0405385836977
1.03198316670023,-1.49430975437164,14.2478098082542,-7.56865055859089,16.2023923311422
1.04197016661055,-2.52348052024841,14.557909873724,-8.39056793510914,16.9912425708429
1.05195616674609,-1.99019340276718,14.1623141598701,-7.53988284230232,16.1673079212008
1.06194316665642,-2.03200567245483,13.6727712321281,-6.20710417449474,15.1526189964649
1.07193016656674,-5.02193144917488,12.1181556344032,-5.77544341921806,14.3326633306033
1.08191616670229,-6.03600879728794,9.51673640727997,-5.98112975478172,12.7583536238075
1.09190316661261,-5.63269417405129,6.85598489820957,-5.33861255586147,10.3553153792857
1.10189016675577,-5.93768903553486,5.2949549049139,-2.77994816958904,8.42738454998846
1.11187616665848,-5.45867986679077,5.14006976366043,-2.04446433484554,7.77157239430082
1.1218631665688,-4.49262219250202,2.57030911624432,-2.37967672973871,5.69675385247338
1.13185016671196,-5.65996558785439,-0.398145099878311,-0.961585723757744,5.75485682535957
1.14183616661467,-4.62868163824081,-0.94518019080162,0.0982937416434288,4.72522178960075
1.15182316675782,-1.33970235586166,-0.627961140275002,0.916821194887161,1.7406029700627
1.16181016666815,3.87153854727745,-1.16713231086731,1.59532157421112,4.34695979729156
1.17179716657847,6.43174484431744,-5.83203745007515,0.603060772418976,8.70308478970035
1.18178316671401,8.17140435218811,-5.0110807710886,1.52386216700077,9.70592270138955
1.19177016662434,8.97025972545147,-3.58869790881872,7.51726581215859,12.2414703983412
1.20175716653466,8.3236477214098,-4.94238475799561,7.42925352215767,12.2026262084311
1.2117431666702,8.52236768424511,-4.88535013943911,3.80773723840714,10.5354762496593
1.22173016658053,10.1118426275253,-2.65069839119911,2.13239067077637,10.6687699974157
1.23171716672368,7.17625561058521,-2.92950912863016,-0.705520362854004,7.78321445840887
1.24170316662639,1.27069468617439,-4.21102934986353,-1.24149252176285,4.57041976764465
1.25169016653672,2.29926435828209,-3.40912377655506,-0.341121883392334,4.12614900996905
1.26167716667987,3.28495932161808,-5.00247542381287,0.686818555220962,6.02390553032939
1.27166316658258,2.88664172887802,-7.39646935343742,-5.15979476094246,9.46910456919176
1.28165016672574,2.69819707810879,-6.8843140733242,-7.51861242592335,10.5453108320112
1.29163716663606,1.14028540492058,-4.32695683211088,-2.67492340564728,5.21325440178259
1.30162316653878,-0.508144674897194,-1.56764962613583,1.85698681354523,2.48276788819072
1.31161016668193,1.71024976730347,2.18243377357721,6.33779002904892,6.91777087615107
1.32159654167481,3.77258670151234,1.10453348189592,5.30945541501045,6.60626380316747
1.33158254157752,5.04556297123432,-2.35148788779974,2.45260524988174,6.08296584692922
1.34156954172067,2.79765821635723,-4.99627620577812,1.25643581226468,5.86244815502167
1.351556541631,1.3921448636055,-7.12661801218987,0.472579058781266,7.27668073916472
1.36154354154132,-0.587446367740631,-8.44734966158867,0.436954239606857,8.47901754613259
1.37152954167686,-2.5167591458559,-8.70895993709564,1.08528868719935,9.13005538421039
1.38151654158719,-4.0006854146719,-9.0544660627842,-0.00290738180279732,9.89893165559537
1.39150354173034,-4.22793628156185,-8.11947756886482,-1.79611481353641,9.3288471750614
1.40148954163305,-4.0250057387352,-6.32142191827297,-2.69046764373779,7.96239049580421
1.41147654154338,-3.50111509680748,-4.39016318678856,-2.85730741739273,6.30044009615315
1.42146354168654,-2.72209289431572,-3.42613215744495,-2.16509414792061,4.88219253562604
1.43144954158925,-4.53796267211437,-2.64334259390831,-1.12014043137431,5.36983052509786
1.4414365417324,-4.42053128600121,-2.69166310697794,-0.983300528526306,5.26811418454286
1.45142354164273,-3.36136371910572,-2.65060220450163,-0.452060959786177,4.30451126261646
1.46140954154544,-2.83311163902283,-1.67066996455193,0.370354453325272,3.30980695973654
1.47139654168859,-1.61086581230164,-0.221532874703407,-0.0829390995204449,1.62814138638075
1.48138354159892,-4.48605226099491,2.94960980951786,2.43380191996694,5.89476502520807
1.49137054174207,-3.6821384614706,2.21597018659115,1.08861239075661,4.43325438640856
1.50135654164478,-2.34286470651627,2.55525487482548,-1.0701876680553,3.62817366635289
1.51134354155511,0.0306861877441406,5.84897332549095,-0.166174360513687,5.85141389089125
1.52133054169826,1.66097937405109,4.81248126089573,1.61602100998163,5.34138112029068
1.53131654160097,2.00309294521809,2.04852522611618,1.44755658745766,3.21002445833499
1.54130354174413,3.68481473207474,2.36618924975395,0.765384010523558,4.44550602956866
1.55129054165445,5.88114646017552,3.67310509800911,-1.68039169147611,7.13465493095759
1.56127654155716,6.06129508137703,4.36636677324772,-3.10752848625183,8.09080899261092
1.57126354170032,4.29011615753174,4.57444578945637,-1.94720452710986,6.56675387053505
1.58125054161064,2.31876540720463,4.36493479013443,-0.113997316360474,4.94391789210866
1.5912375417538,1.43281692624092,4.46732479870319,0.602667985707521,4.73002789655915
1.60122354165651,0.483274712562561,5.12676910221577,0.717206461876631,5.19920195647315
1.61121054156683,-0.748582767248154,5.46090590178967,0.24846354201436,5.51757225229833
1.62119754170999,-1.32450310349464,5.06181179881096,0.144585270881653,5.23422888860477
1.6311835416127,-0.543008113503456,4.23919217169285,-0.180569036006927,4.27764108553265
1.64117054175586,0.332725281715393,3.83605062603951,-0.93714026927948,3.96285533459599
1.65115754166618,0.259466686248779,3.44589516162872,-1.93126750230789,3.95870061910215
1.66114354156889,0.836639496088028,2.58324900448322,-2.88749776124954,3.96368318446355
1.67113054171205,2.03330141544342,2.46144857883453,-4.42072073578835,5.45305561828594
1.68111754162237,3.37474916517735,2.61178809463978,-4.12333251714706,5.93399022801096
1.69110354175791,4.97182022631168,2.20943475365639,-2.38355182573199,5.93985838209775
1.70109054166824,3.87798919558525,2.12294507861137,-1.5003136754036,4.66868687453755
1.71107754157856,3.88757336676121,1.68201648652554,-1.14992512464523,4.38916096027306
1.72106454172172,2.77112413644791,-0.275372866988182,-1.58629113435745,3.20488357954209
1.73105054162443,1.59559054613113,-1.59855508446693,-2.21910604834557,3.16634161182618
1.74103754153475,0.862050910592079,-2.03546956300735,-2.01633630394936,2.99196928543829
1.75102454167791,0.081864527463913,-2.21987378776073,-2.05060332655907,3.02316315096278
1.76101054158062,-2.00734796404839,-2.20058674693108,-2.65200933694839,3.98813006342564
1.77099754172377,-2.6982204669714,-2.16463397204876,-3.07551117986441,4.62869343754821
1.7809845416341,-0.212728137373924,-2.14329163491726,-2.87773027986288,3.59447963638363
1.79097054153681,0.858478846549988,-1.26408557832241,-3.90328074216843,4.19171788548316
1.80095754167996,0.381865282058716,-1.39767866849899,-5.17463850259781,5.37365893843167
1.81094454159029,-0.0434997761249542,-3.08504477262497,-6.34031251788139,7.05116701717007
1.82093154173344,-1.00371374309063,-3.98347939789295,-5.01647248864174,6.48386810637031
1.83091754163615,-0.2013599807024,-3.72473191916943,-2.61425737380981,4.55505382273657
1.84090454154648,2.03281258821487,-3.72894659221172,-0.786384724080563,4.31923264488492
1.85089154168963,3.0161043459177,-4.45757690548897,0.870753760188818,5.45207202856815
1.86087754159234,3.60679357945919,-4.95892302274704,1.73662334114313,6.37304778731196
1.8708645417355,2.68014029145241,-4.56619653761387,1.62419278621674,5.53816801919028
1.88085154164583,-0.00911990225315094,-3.41402374327183,1.15547077015042,3.60426885691299
1.89083754154854,-2.76681473851204,-2.85555909991264,1.77563537925482,4.35457949409616
1.90082454169169,-2.83392381727695,-2.52573579132557,2.13715702861547,4.35636381110131
1.91081154160202,-1.8928477871418,-2.41604611873627,3.30845986604691,4.51287694031106
1.92079854174517,-1.94570954024792,-2.61962921082973,4.40340976148844,5.48071713782201
1.93078454164788,-1.31471661865711,-2.63122833251953,4.18989517360926,5.11928353298202
1.94077154155821,-0.728760706186295,-2.92037139236927,3.68795205563307,4.7603205355205
1.95075854170136,0.468661351203919,-2.86135836839676,3.3479496216774,4.42897074316328
1.96074454160407,2.17077471792698,-2.27387984097004,2.71461927562952,4.15354670357518
1.97073154174723,2.97540129303932,-1.32584913253784,1.75327358007431,3.69930493788468
1.98071854165755,2.83511489510536,-1.01405220508575,1.11230881690979,3.20989240431246
1.99070454156026,2.17983731746674,-0.413063685894012,0.346759184002876,2.24556324135288
2.00069154170342,1.56309522986412,0.0770288801193237,-0.0747701007127762,1.5667771743158
2.01067854161374,0.360723504424095,0.081902534365654,0.225172766447067,0.433049935375752
2.0206655417569,-0.526461662650108,0.545739347934723,0.173221424818039,0.777816803714425
2.03065154165961,-1.66319956183434,0.726321832537651,-0.179776153564453,1.82375866065036
2.04063854156993,-1.84965089678764,1.48142015218735,-0.143667842745781,2.37412184951265
2.05062554171309,-1.24292392015457,2.45606153905392,0.261559989452362,2.76505185900638
2.0606115416158,-1.39856042861939,2.70178259074688,0.0665851682424545,3.0430304015558
2.07059854175895,-1.60912451148033,2.71780863940716,-0.273823354840279,3.17029095250562
2.08058554166928,-0.926212992668152,2.83270759642124,-0.155271057486534,2.98432771925318
2.09057154157199,1.03762934803963,3.00384273469448,-0.346021557748318,3.19679163492345
2.10055854171514,2.03566544473171,2.24822576701641,-0.309123288094997,3.04860789699068
2.11054554162547,2.10107941567898,0.823456363677979,0.611839781999588,2.33815376156252
2.12053254153579,1.21959469914436,0.147695989608765,1.70875141829252,2.10453242907878
2.13051854167134,-0.612074840068817,1.05932076394558,2.61446728885174,2.88656115390741
2.14050554158166,-2.063135663867,2.69700132250786,2.76920800387859,4.38165013092948
2.15049254172482,-3.3275410848856,3.57872402071953,2.54105841994286,5.50788282206866
2.16047854162753,-4.42808764278889,3.84527110040188,2.45195328533649,6.35658280220418
2.17046554153785,-5.23728206276894,4.78488357245922,1.81174895256758,7.32165749500214
2.18045254168101,-5.80701546013355,5.87701832592487,1.16494720637798,8.34373267495638
2.19043854158372,-5.45618193626404,5.96408512115479,2.46640731006861,8.45123645824407
2.20042554172687,-4.27564663767815,5.17433327794075,4.71469710409641,8.2026366385979
2.2104125416372,-4.44917153298855,4.47719957649708,6.28970720529556,8.91071602656533
2.22039954154752,-2.65557730793953,4.09244284629822,5.06982950091362,7.03586174231663
2.23038554168306,-0.152124670743942,3.52950098991394,3.02470209181309,4.65073562971181
2.24037254159339,1.30215738415718,2.4496851503849,1.86006975799799,3.34012435303689
2.25035954173654,2.82837656378746,0.336573919057846,-0.599055429697037,2.91064656003123
2.26034554163925,4.33318148553371,-2.22598295867443,-3.40333006292582,5.94256825253996
2.27033254154958,6.44264931678772,-5.08370728254318,-4.17493302583694,9.20770740868279
2.28031954169273,7.96706404566765,-7.76783362090588,-4.8703189945221,12.1463309595222
2.29030554159544,8.81766201496124,-8.99052792906761,-6.02102647662163,13.9582776761896
2.3002925417386,9.37944436848164,-8.43001149773598,-6.88821650505066,14.3696415102763
2.31027954164892,8.69983535706997,-6.66270226120949,-7.18641163945198,13.1043217647195
2.32026708335616,5.96679355144501,-4.25546731173992,-6.63668799877167,9.88722685690445
2.33025308325887,1.97885448217392,-5.41769848644733,-5.29745926737785,7.8313725898594
2.34024008340202,2.12749538183212,-1.76975629627705,-4.67250768899918,5.4305250254175
2.35022708331235,3.61194088339806,-1.00701098799706,-4.25370905399323,5.67046989156393
2.36021308321506,2.48810545027256,-2.48043390333653,-2.44121604323387,4.27817213892098
2.37020008335821,1.63399330437183,-0.556445015072823,-1.71872472167015,2.43589405402031
2.38018708326854,1.11364081263542,1.44416110932827,1.7337216603756,2.51626468498826
2.39017308340408,-0.963369709253311,2.28011765062809,4.29006762564182,4.95294840776609
2.4001600833144,-2.86659981250763,-0.531059328317642,3.2603021979332,4.3736699597832
2.41014708322473,-2.30544486522675,-2.22603499889374,3.23892126917839,4.55641512933538
2.42013408336788,-1.92357256650925,-2.81187455177307,2.88468057274818,4.4640958681828
2.43012008327059,-2.69816374897957,-3.50623257994652,3.14941092252731,5.43070379232013
2.44010708341375,-2.56085475325584,-4.21403861939907,2.35903123453259,5.46636322599955
2.45009408332407,-3.10728991985321,-4.52584197878838,2.78394941926003,6.15539362120593
2.46008008322678,-4.23208546578884,-4.62242043972015,3.61297350168228,7.23400965130281
2.47006708336994,-4.72108869552612,-4.84526133656502,3.81724598050118,7.76766391949914
2.48005408328027,-4.68005527496338,-4.73269834220409,3.67684673130512,7.60398269727931
2.49004008341581,-4.86900161683559,-4.28558690428734,2.77203688681126,7.05390816220264
2.50002708332613,-4.93864780247212,-2.57349175572395,2.00730761826038,5.919660953802
2.51001408323646,-4.44858447253704,-0.297548432350159,1.09294605463743,4.59053046577835
2.52000108337961,-3.93715950965881,1.57965220570564,0.339046998918056,4.25575832995283
2.52998708328232,-3.05247870504856,2.79557953119278,-0.136218197643757,4.14143049650339
2.53997408342548,-1.98629798769951,3.45754398465157,-0.71829185128212,4.05165809087559
2.5499610833358,-1.10470802128315,3.8437262660265,-1.47959962159395,4.26424981217685
2.55994708323851,-0.18745120882988,4.07194075405598,-2.54859723508358,4.80740962753429
2.56993408338167,0.361408798098564,4.27280489087105,-2.92485679149628,5.19059391645662
2.57992108329199,1.00168943703175,4.49603111922741,-3.2147874712944,5.61716441266532
2.5899070831947,1.60513320207596,4.26301782131195,-3.35206372261047,5.65562593721253
2.59989408333786,2.04495257735252,3.64751885175705,-2.67326396584511,4.96312049507462
2.60988108324818,1.8130911809206,3.34599899053574,-1.85641802564263,4.2343000319922
2.61986808339134,1.05917165994644,3.37515086889267,-1.04977167606354,3.68991985887036
2.62985408329405,-0.179078580737114,3.67879268467426,-0.335429326593876,3.69839121619535
2.63984108320437,-1.4970579457283,4.19743252694607,-0.246744606792927,4.46323931826588
2.64982808334753,-2.66146253049374,4.72100741922855,-0.64742535173893,5.45806315827395
2.65981408325024,-3.42766763627529,5.11330588817596,-1.27406209766865,6.28633730876254
2.66980108339339,-3.65297781229019,5.22499355435371,-1.64995824962854,6.58537521828784
2.67978808330372,-3.61873300909996,5.06935646116734,-1.68574964135885,6.45254642562688
2.68977508321404,-3.61958845674992,4.70018022179604,-1.50194241732359,6.11955437418083
2.69976108334959,-3.18675591945648,4.18516799211502,-1.44684030354023,5.45567514395454
2.70974808325991,-2.42004853785038,3.41291160285473,-1.64588624864817,4.4959472948358
2.71973508340307,-1.51345997035503,2.47096141397953,-2.06604260712862,3.55875588453516
2.72972108330578,-0.387830319106579,1.40909535706043,-2.60865340232849,2.99015629276926
2.7397080832161,0.941722732186318,0.278292381763458,-3.05555989533663,3.20947575595355
2.74969508335926,2.24007240951061,-0.994051803946495,-2.95911767452955,3.84219218682423
2.75968108326197,3.23386225819588,-2.25029918968678,-2.13103265494108,4.47917533978231
2.76966808340512,3.73562937498093,-3.84153472959995,-0.90452947050333,5.4341963038661
2.77965508331545,5.05361692607403,-6.04704307794571,0.0972096678614616,7.88132119264015
2.78964208322577,6.45655282616615,-7.84582261383534,0.713497134447098,10.1859258315437
2.79962808336131,6.8584155857563,-8.20154090166092,0.462140536308289,10.7012481227127
2.80961508327164,7.2827556270361,-7.03582595586777,-0.82729476839304,10.1600094999069
2.81960208341479,7.97278320729733,-4.93294559776783,-2.31889667719603,9.65797629633714
2.8295880833175,7.94194966971874,-2.66677355647087,-3.25410795003176,8.98751713813653
2.83957508322783,6.23470010876656,-0.602485991120339,-3.34699097067118,7.10188871874971
2.84956208337098,4.2956774443388,1.03366961359978,-2.88025890827179,5.27420221024561
2.85954908328131,2.70547744631767,0.638416546583176,-1.9045258462429,3.36962944527912
2.86953508341685,1.04263865768909,-1.32201920628548,-1.01285557240248,1.96486807771976
2.87952208332717,-2.29922459721565,-3.39051910579205,1.1934482896328,4.26689259007182
2.8895090832375,-5.23525424838066,-5.16891407847405,4.24351794183254,8.49311511275396
2.89949508337304,-4.04832268059254,-7.55714791595936,6.16903938531876,10.5620285971731
2.90948208328336,-0.892973325848579,-9.17685471832752,5.54320780098438,10.7582162372236
2.91946908342652,1.27168403506279,-6.76306153178215,2.85624614775181,7.45079348957224
2.92945608333685,5.4365294444561,-1.0839369571209,-0.800664209425449,5.6010565881542
2.93944208323956,2.91428677976131,4.24466224193573,-1.89060099452734,5.48494276208186
2.94942908338271,-4.872706412673,4.49108671367168,-1.35883941560984,6.76458219044146
2.95941608329304,-7.97544427514076,2.65287706375122,0.418287880718708,8.41548767763396
2.96940208319575,-7.40779073238373,1.95932419717312,2.02219462931156,7.92487135310314
2.9793890833389,-5.67088877141476,1.93090146660805,3.59712403893471,6.98760769383836
2.98937608324923,-3.47476929724216,1.68325317263603,5.52957677185535,6.74415170263009
2.99936308339238,-1.74227321326733,0.706200394034386,7.24326294779778,7.48325417697029
3.00934908329509,-0.52684407055378,-0.496832651495934,8.20707763016224,8.23896416946812
3.01933608320542,0.0694883108139038,-1.09235110044479,7.66203410089016,7.73982080640026
3.02932308334857,0.168788065910339,-0.985248236060142,5.49280070900917,5.58301559434908
3.03930908325128,0.18066960811615,-0.282459107637405,2.23758208036423,2.26256452309128
3.04929608339444,0.43251444876194,0.270325550436974,0.176960134506226,0.539869929530585
3.05928308330476,0.731672619581223,0.370132259130478,-1.18374717414379,1.44000002909281
3.06927008321509,1.0714192378521,0.119850963950157,-1.8539790058136,2.14465418909365
3.07925608335063,0.732766048908234,-0.00102209329605103,-1.5126714733243,1.68080995752536
3.08924308326095,-0.372776954770088,0.0237116289138794,-1.29162537932396,1.34455234924757
3.09923008340411,-1.45163151204586,0.228990413546562,-1.24074553996325,1.9233096867638
3.10921608330682,-1.91971457362175,0.460039047002792,-1.39971496134996,2.41994668163782
3.11920308321714,-1.99768310129643,0.912828131318092,-2.03184487402439,2.99205390369729
3.1291900833603,-2.20112702965736,1.62690238595009,-2.55268063813448,3.74271960136009
3.13917708327062,-2.27721743166447,2.30948412179947,-2.79584148645401,4.28207493597412
3.14916308340617,-2.38077454447746,2.90589017808437,-2.86036638826132,4.72165024475704
3.15915008331649,-2.5755031979084,3.27813328206539,-2.53240015536547,4.8777479521103
3.16913708322681,-2.69710306406021,3.35349570572376,-2.11009055972099,4.79299286007129
3.17912308336236,-2.83058973491192,3.27917057812214,-1.78359168559313,4.68469820038896
3.18911008327268,-2.94359945654869,3.22284610390663,-1.38542261213064,4.57940067959365
3.19909708341584,-2.87386907100678,3.3427590483427,-0.971932956576347,4.51417934564474
3.20908408332616,-2.83805896818638,3.43767222225666,-0.574069692492485,4.49463291342203
3.21907008322887,-2.90693156719208,3.4091366404295,-0.368560819923878,4.49536437315594
3.22905708337203,-2.91801262557507,3.25662020623684,-0.43561376541853,4.39432955105869
3.23904408328235,-2.77880503892899,3.06199972629547,-0.628336823880672,4.18239248904919
3.24903108342551,-2.56719898223877,2.77357353508472,-0.8774419516325,3.87983571139485
3.25901708332822,-2.34260918319225,2.39162463784218,-1.15872138351202,3.54264328406325
3.26900408323854,-1.96646949470043,2.02168709099293,-1.27021082907915,3.09316286635294
3.2789910833817,-1.3363671040535,1.75650182783604,-1.17778447598219,2.50166983829847
3.28897708328441,-0.84571379005909,1.25262737452984,-0.735102011561394,1.68067906559201
3.29896408319473,-0.495428735017777,0.493952897787094,-0.168594523072243,0.719627132564871
3.30895108333789,-0.0630318152904511,-0.368119062781334,0.300724055171013,0.479499334181306
3.31893791654147,0.823164002895355,-0.999177473187447,0.505702292919159,1.38985229706313
3.32892391667701,2.02907153964043,-1.32333892285824,0.411652752757072,2.4571966153694
3.33891091658734,3.31730787277222,-1.51126083254814,0.277062127590179,3.65584521681313
3.34889791673049,4.52138932406902,-1.74552134156227,0.280182201862335,4.85472020201938
3.3588839166332,5.60609343588352,-2.16700267910957,0.228707993030548,6.01468964861866
3.36887091654353,6.59795721173287,-2.64510669887066,-0.243183360099792,7.11257808132168
3.37885791668668,7.88088485777378,-2.90021896362305,-0.733283527493477,8.4295504571798
3.38884491659701,8.93819768786431,-3.00737971544266,-1.491837259233,9.5478421157995
3.39883091673255,8.93579038918018,-3.36895282030106,-1.65523302286863,9.69216123188085
3.40881791664287,7.83162908256054,-3.6563510710001,-0.987980055212975,8.69939203799382
3.4188049165532,6.62137647986412,-3.43897264301777,-0.666200176477432,7.49085989741238
3.42879191669635,5.96852783560753,-2.6007842195034,-0.257471616268158,6.51564998400187
3.43877791659906,5.31103357851505,-1.33057660639286,0.414463509321213,5.49083707444987
3.44876491674222,3.54751801550388,-0.293554199337959,1.24968797922134,3.77263544272222
3.45875191665255,1.97557594835758,0.499829349517822,2.4572058391571,3.1922703899194
3.46873791655526,0.489483286142349,0.641852370500565,3.08780231952667,3.19156568433178
3.47872491669841,-0.716528915762901,0.249702420830727,3.3399763584137,3.42508497133363
3.48871191660874,-1.41526300013065,-0.428487471342087,3.22701136797667,3.54967227243398
3.49869891675189,-1.76794541358948,-1.44817814648151,2.70744941979647,3.54304011974673
3.5086849166546,-1.83022761583328,-2.77283386230469,2.07648134887218,3.9179223506747
3.51867191656493,-2.08727706313133,-3.97945826768875,1.73660638421774,4.81753208357312
3.52865891670808,-2.41333125650883,-4.74998505055904,1.78421792238951,5.61871509588739
3.53864491661079,-3.13934844911098,-5.1388067650795,2.1397610861063,6.39072931357425
3.54863191675395,-4.15702358901501,-5.15748277187347,2.54487460523844,7.09625678919432
3.55861891666427,-5.08148124754429,-4.48508045375347,2.79724511057138,7.33225603442769
3.5686059165746,-5.2247128880024,-3.03269582033157,2.55849101632833,6.56054456439004
3.57859191671014,-4.97796331107617,-1.12951658785343,1.82383163899183,5.42054317352459
3.58857891662046,-4.67551783561707,0.593442687392235,1.08789289087057,4.83695691487937
3.59856591653079,-4.5133961802721,1.81198430299759,0.560977776646614,4.89578678664582
3.60855291667394,-4.08437719702721,2.84505223810673,0.124501839280128,4.97915254166169
3.61853891657665,-3.14594410836697,3.4555664563179,-0.353373846709728,4.68644608872616
3.62852591671981,-2.05747789800167,3.60808639883995,-0.492249311506748,4.18256047737963
3.63851291663013,-1.06389971852303,3.64584128558636,-0.811345318257809,3.88359659545353
3.64849891653284,0.118310807347298,3.78014071941376,-1.30995786219835,4.00243062481293
3.658485916676,2.7181325751543,3.93885461747646,-2.65070599257946,5.47074607826275
3.66847291658632,7.04422957420349,3.81215422511101,-4.03968429654837,8.97065991696789
3.67845991672948,6.35967732667923,3.37459713757038,-2.84103081554174,7.73982284262591
3.68844591663219,2.90997094988823,3.75447319686413,-1.28514432549477,4.92093444911797
3.69843291654252,0.113592689037323,4.32456678271294,-0.416022669374943,4.34601610887267
3.70841991668567,-1.98273352503777,4.65563554823399,-0.12130458176136,5.06170814951287
3.71840591658838,-3.56723775029182,4.83372302591801,-0.529951865673065,6.03083016162181
3.72839291673154,-4.56443184792995,4.89029659152031,-0.847359781265259,6.74292647493196
3.73837991664186,-4.77849782824516,4.83132683694363,-1.09383424669504,6.88274900451545
3.74836691655219,-4.6119697111845,4.63996676445007,-1.23347335785627,6.65740285070881
3.75835291668773,-4.47204701006413,4.23733685016632,-1.129544069767,6.26339347698568
3.76833991659805,-4.11102237403393,3.87098481595516,-1.13237324506044,5.75910562251568
3.77832691674121,-3.62679631948471,3.36911888122559,-1.27245002031326,5.11113907392998
3.78831291664392,-3.05927404671907,2.74403574049473,-1.35667009860277,4.32775271873107
3.79829991655424,-2.49186608701944,2.05055596411228,-1.72299874395132,3.65826475658226
3.8082869166974,-1.89221044063568,1.37857698440552,-2.39071364164352,3.34610916885922
3.81827391660772,-0.730804892778397,0.757803826332092,-3.24696352958679,3.4133729056432
3.82825991674326,0.952868109941483,0.111721580028534,-3.62449163943529,3.74931713658952
3.83824691665359,2.35442932963371,-0.74361731171608,-3.21240414619446,4.05164714320123
3.84823391656391,3.53152646541595,-2.28404756426811,-2.53710862576962,4.91176878840271
3.85822091670707,5.53949481904507,-4.5945274668932,-1.58927876919508,7.37031156061108
3.86820691660978,7.56506563067436,-6.97168141543865,-0.131298935115337,10.2884303547794
3.87819391675293,8.87019690871239,-8.06438685715199,0.582290292978287,12.002241064336
3.88818091666326,10.2901289105415,-6.8536962980032,-0.526898449659347,12.3748748647038
3.89816691656597,11.128797390461,-3.90406777739525,-1.92357929080725,11.9495620780198
3.90815391670913,9.75652195036411,-0.497658863067627,-3.37531254440546,10.3358656959322
3.91814091661945,6.69582498371601,2.47519830644131,-4.08294930696487,8.22381626205318
3.92812791652977,3.63603608965874,4.16742870926857,-2.92199721068144,6.25510097371472
3.93811391666532,1.060767365098,3.78878758192062,-1.52608776345849,4.2200808766599
3.94810091657564,-1.24664041042328,1.21261020004749,0.0182398045063019,1.73921490927026
3.9580879167188,-3.48082291960716,-2.57123122215271,2.83544467806816,5.17369352762806
3.96807391662151,-4.93940794050694,-6.71159141600132,6.63507124364376,10.652106859505
3.97806091653183,-4.0971305590868,-11.5551833724976,9.4974663233757,15.5084044361083
3.98804791667499,1.5430907356739,-14.5339351201057,8.56301694273949,16.9393523564394
3.99803491658531,6.99335295081139,-9.87718567728996,4.79126697778702,13.0162214813177
4.00802091672085,9.51155285060406,0.336918320059776,0.611430476903915,9.53713787319409
4.01800791663118,-0.535086305737496,6.1968282777071,-1.33581249564886,6.36171306186547
4.0279949165415,-9.91172751903534,4.97169334173203,-2.40517731428146,11.3465834068657
4.03798091667704,-8.72394752025604,3.65225275754929,-0.494804252386093,9.47053545420676
4.04796791658737,-6.37902751743794,2.60828619718552,2.03044768184423,7.18455751896841
4.05795491673052,-4.56679178416729,1.18156908631325,4.63759981155396,6.61506044702498
4.06794191664085,-2.79286057591438,-0.356426970362663,6.82028823137283,7.37857994065942
4.07792791654356,-1.07071698725224,-1.78984615981579,8.63616911888123,8.88444715176558
4.08791491668671,-0.0420449888706207,-3.12480408489704,9.07113647460938,9.5943569503676
4.09790191659704,0.375167881250381,-3.77525946378708,7.6452052295208,8.53478165857381
4.10788791673258,0.334144400954247,-3.15129431068897,5.06661002397537,5.97602254416075
4.1178749166429,-0.193991319537163,-1.59751603424549,2.14395178556442,2.68071247442766
4.12786191655323,-0.618255347013474,-0.111859574317932,-0.456071126461029,0.776371760736293
4.13784891669638,-0.613427301049232,0.792239833474159,-2.46058786869049,2.65677053336612
4.1478349165991,-0.4295388007164,1.38818922221661,-3.61010164171457,3.89158152445885
4.15782191674225,-0.331050639152527,1.82151117146015,-4.15449086755514,4.54832846681465
4.16780891665258,-0.674844700098038,1.80388883292675,-4.04132560998201,4.47680052902793
4.17779491655529,-1.11961666703224,1.9024413138628,-4.04019125014544,4.60390809764271
4.18778191669844,-1.59981165111065,2.41631801426411,-4.06804504662752,4.99469524260263
4.19776891660877,-2.88770358324051,2.32059383153915,-3.21146479099989,4.90280468910088
4.20775591675192,-4.15871401906014,2.09986027121544,-1.18607977464795,4.80740061600708
4.21774191665463,-2.7176010632515,3.83060219049454,-1.03550125390291,4.80948349905078
4.22772891656496,-2.53792021930218,4.94762854099274,-1.17466264754534,5.68330005848072
4.23771591670811,-3.15150831878185,4.88733790040016,-1.31326358556747,5.96177303167578
4.24770191661082,-3.03839334726334,5.04642835915089,-1.68013339072466,6.12544867967762
4.25768891675398,-3.02577622532845,4.96689687073231,-1.68420948475599,6.05491105457341
4.2676759166643,-2.79406510233879,4.95323251247406,-1.72445353120565,5.94264689343269
4.27766291657463,-2.009302688241,5.85631801307201,-2.35559321790934,6.62439260396489
4.28764891671017,-3.42468146324158,4.19045270562172,-1.76942300498486,5.69378562762004
4.29763591662049,-3.90415490090847,2.17311594307423,0.237294921576977,4.4745019021269
4.30762291653082,-2.02556437969208,2.25144992172718,0.58744285941124,3.08496789600734
4.31760920840316,-1.38462475955486,2.37168563246727,0.318176824450493,2.76465458161439
4.32759620831348,-1.20209222853184,1.90933401167393,0.969146465957165,2.45557059896651
4.33758320822381,-0.415587344169617,1.57401373565197,1.22380089372396,2.03664447268899
4.34756920835935,0.523510572910309,1.2529746991396,1.24263623714447,1.84069381878068
4.35755620826967,1.67642888724804,1.02947540581226,0.649668928384781,2.07178742675996
4.36754320841283,2.39287886559963,0.392469207644463,0.226890678405762,2.43544261363923
4.37753020832315,3.06956836223602,-0.644411696791649,0.142214809656143,3.13970403342222
4.38751620822586,4.15051212966442,-1.00039193987846,-0.386370561718941,4.28681900513986
4.39750320836902,4.93306546568871,-1.34895148158073,-0.504581966400147,5.13900845973673
4.40749020827934,5.58094046831131,-1.94046341836452,-0.309279701113701,5.91675153461482
4.4174772084225,6.07311990559101,-2.53730509221554,-0.0808821952342987,6.58234338576883
4.42746320832521,6.54679758310318,-3.00207336723804,-0.448031497299671,7.21621336429143
4.43745020823553,7.08215753853321,-2.87825565218925,-1.63543902844191,7.81767048523492
4.44743720837869,7.49636026203632,-2.42192198574543,-3.11250826746225,8.47046816877882
4.4574232082814,7.63475567042828,-2.33213506579399,-3.82297625184059,8.85118610889974
4.46741020842455,7.13664949536324,-2.32800751626492,-3.77761852294207,8.40367697620091
4.47739720833488,6.20654284179211,-2.46730164170265,-2.70403230696917,7.20559103441782
4.48738320823759,5.65878269612789,-2.34297054111958,-1.22540244609118,6.24603423889406
4.49737020838074,4.71928366005421,-2.55976424753666,0.330330554544926,5.37895431680615
4.50735720829107,3.53790460824966,-2.83783034205437,1.13858474224806,4.67615496777413
4.51734420820139,1.89038493990898,-2.62677567780018,1.80286206185818,3.70456708626052
4.52733020833693,-0.0278508728742599,-2.81261480927467,3.08634519338608,4.1757759026567
4.53731720824726,-2.14928444623947,-4.04496462464333,4.23588703304529,6.23890225938699
4.54730420839042,-2.95823211371899,-3.69498830258846,4.57085033655167,6.58002648885689
4.55729020829313,-3.36305648803711,-3.06444327771664,3.76792822480202,5.90747362679943
4.56727720820345,-3.66893427908421,-2.71263443827629,3.10742849886417,5.52046884019056
4.57726420834661,-3.62475271761417,-2.40182978332043,2.8775870230794,5.21422339829157
4.58725120825693,-3.97508455038071,-2.26364896774292,3.03377697050571,5.48900779181537
4.59723720839247,-4.51618471741676,-2.33092469215393,3.58412830978632,6.21893158535559
4.6072242083028,-4.59434094071388,-2.23013331234455,3.96081529766321,6.46293440261864
4.61721120821312,-4.24617082357407,-1.77338098526001,3.46486879169941,5.76022243715865
4.62719820835628,-4.0829387819767,-1.22444905757904,2.87202836751938,5.13986493361563
4.63718420825899,-3.77727792263031,-0.777194362878799,2.46971244871616,4.57944747342128
4.64717120840214,-3.29903064608574,-0.272672622799873,2.11253557294607,3.9269275661769
4.65715820831247,-2.53884407937527,0.361258524656296,1.42509655505419,2.93379228512228
4.66714420821518,-1.60248733699322,1.15214531242847,0.51529698908329,2.03983711926537
4.67713120835833,-0.476879028081894,2.095415802598,-0.713252720832825,2.26426819016149
4.68711820826866,0.604375811219215,2.80936960458755,-1.83682561397553,3.41053603301943
4.69710520841181,2.51196618318558,3.24560288250446,-2.92228255480528,5.03821868387116
4.70709120831452,6.70821640312672,3.68554797291756,-5.06842441499233,9.17999767006209
4.71707820822485,8.69601946413517,3.32738730311394,-5.51601064682007,10.8221363067268
4.727065208368,5.27238640666008,3.02499854564667,-3.19967241883278,6.86924873695353
4.73705120827071,1.91721255004406,3.59725910961628,-0.957407888174057,4.18719559229106
4.74703820841387,-0.00564256310462952,4.04141770362854,0.322380095422268,4.05425921959179
4.75702520832419,-1.91190386295319,4.20461466193199,0.302945120036602,4.62881589418534
4.76701220823452,-3.68012234151363,4.3520054268837,0.0488473471999168,5.69961733342348
4.77699820837006,-4.70788977563381,4.1880454069376,0.446840419471264,6.31693096610702
4.78698520828038,-4.93275322437286,3.82528999507427,1.02359588429332,6.32555503124575
4.79697220842354,-4.69165965914726,4.21151730000973,0.266564328968525,6.31027771710798
4.80695820832625,-4.756036041677,4.63577314138413,-0.326073489189148,6.64955602792104
4.81694520823658,-5.04780070066452,4.81142116069794,-0.501520656645298,6.9915369174655
4.82693220837973,-5.20650582790375,5.14100824177265,-0.837588499188423,7.36472831623426
4.83691920829006,-5.3286769670248,5.28323591530323,-1.06380440890789,7.57885609944288
4.8469052084256,-5.22639162361622,4.9638130491972,-1.14637528002262,7.29854681929445
4.85689220833592,-4.74861270904541,4.253635379076,-1.61112075090408,6.57559477710027
4.86687920824625,-3.62089823305607,2.99606535315514,-2.64937692046165,5.39504491929401
4.8768662083894,-1.95166639119387,1.51720335781574,-3.82153666734695,4.55137893735078
4.88685220829211,-0.133028541505337,-0.0458632206916809,-4.48182326227427,4.48403164374762
4.89683920820244,1.79805214226246,-1.67926361739635,-4.23898342609406,4.90121396081683
4.90682620834559,3.3696503931284,-4.01320196449757,-3.20608681440353,6.14323420042323
4.9168122082483,6.49168172836304,-5.59441830039024,-2.18400989055634,8.84360486363743
4.92679920839146,9.56180557608604,-6.07139029920101,-1.09001016765833,11.3788412505712
4.93678620830178,10.6004768979549,-7.33411756932736,-0.600370760858059,12.9042565084272
4.94677320821211,11.2009192872047,-8.13194558680058,-0.881799881458282,13.8696324009002
4.95675920834765,11.8658354151249,-6.30460357189179,-1.66399273663759,13.5393850718977
4.96674620825797,10.0962562894821,-3.39436365008354,-3.45380527496338,11.1975384138337
4.97673320840113,5.84940894305706,-0.914516807198524,-2.77880386948586,6.54015878391603
4.98671920830384,2.2779655829072,0.735688487291336,-1.50563434928656,2.82794970623494
4.99670620821416,-0.011161749958992,0.210609691143036,-0.457665077447891,0.503922960164444
5.00669320835732,-2.46322320878506,-1.96871833384037,1.77809705704451,3.62007591060835
5.01668020826764,-5.26571239471436,-4.37128077328205,5.26323492944241,8.63350824087267
5.02666620840319,-6.34714557409287,-6.2058850300312,6.85418687939644,11.2151301250758
5.03665320831351,-3.9500391715765,-7.7881240439415,5.40856455087662,10.2718185382048
5.04664020822383,0.321182878017426,-6.79607958912849,2.34843973428011,7.19757079912703
5.05662620835938,1.90050676256418,-2.64558324694634,-0.600622044950724,3.31236826333608
5.0666132082697,1.0075150179863,0.838500080108643,-1.60584773182869,2.07290034339075
5.07660020841286,-2.96872874289751,4.21990513086319,0.175999436974525,5.16255028684532
5.08658720832318,-6.31789078474045,4.63767991840839,2.46012798517942,8.21438060336747
5.09657320822589,-6.22704961180687,4.4035954105854,4.2064568272233,8.70988395142705
5.10656020836905,-4.83340552210808,3.95346622467041,3.99983435243368,7.41554980953288
5.11654720827937,-3.24088154822588,2.88793454825878,3.9647171446681,5.87898470842397
5.12653420842253,-2.52830388844013,0.786204337477684,4.71923425108194,5.41124844459716
5.13652020832524,-1.90745413184166,-1.7768150550127,6.21671407341957,6.74114136296314
5.14650720823556,-1.25115387618542,-4.01241200566292,7.56716711997986,8.65602994142153
5.15649420837872,-0.977693633437157,-5.46875403463841,7.5953413438797,9.41022665307726
5.16648020828143,-0.365007174611092,-4.67595052957535,5.42367843389511,7.17035782557973
5.17646720842458,0.0382331889867783,-2.12144877612591,2.41311257064343,3.21327231417811
5.18645420833491,0.147875499129295,-0.343441473841667,-0.925235630571842,0.997937964643569
5.19644120824523,0.698484408259392,0.941816287636757,-3.4974956703186,3.68881747341024
5.20642720838077,0.867946073412895,1.04612886071205,-5.24854380011559,5.42170895579054
5.2164142082911,1.17926177501678,1.11249183475971,-6.08906292378903,6.30118907082504
5.22640120820142,0.930480290651321,1.33920592725277,-6.53765019893646,6.7379623188716
5.23638720833696,-0.13290077984333,2.06518745183945,-5.31866945743561,5.70709265966275
5.24637420824729,-1.37191642105579,2.82260770082474,-3.30624201714993,4.55856393780818
5.25636120839044,-2.14428800046444,3.51972795367241,-2.10120162248611,4.62617597537502
5.26634820830077,-2.62732356190681,3.99114451289177,-1.38089248180389,4.97382424981415
5.27633420820348,-2.86792128324509,4.19160928487778,-0.905537238121033,5.15892998339652
5.28632120834664,-2.82874026060104,4.02360766947269,-0.793318352401257,4.98202209429479
5.29630820825696,-2.95865720629692,3.53008805036545,-0.61054608553648,4.64628245270018
5.3062942083925,-3.01388649702072,2.97678065121174,-0.472723996639252,4.2624174876883
5.31628120830283,-2.96025232672691,2.53914345681667,-0.631862694919109,3.95089784699851
5.32626745826565,-2.76034654855728,2.3777655673027,-0.770220681130886,3.72377792823688
5.3362544584088,-2.44590726435184,2.50990094661713,-0.87676659822464,3.61258699208768
5.34624045831151,-2.14865002334118,2.73770320594311,-0.942681967914104,3.60560189972016
5.35622745822184,-2.14415117561817,2.909682097435,-1.11415449053049,3.7821917456427
5.36621445836499,-2.16100051224232,2.90465232253075,-1.31934936761856,3.85325979951136
5.3762004582677,-1.76142459869385,2.73659983634949,-1.156541249156,3.45386492819148
5.38618745841086,-1.28664998352528,2.37845436930656,-0.676692420244217,2.78754838497829
5.39617445832118,-0.728979976773262,1.88248769044876,-0.23417923271656,2.03224300325113
5.40616145823151,-0.0531459277868271,1.29006066441536,0.0759152778983116,1.2933847598184
5.41614745836705,0.730744666457176,0.647023648023605,0.222074619233608,1.00097178040399
5.42613445827737,1.5805058991909,-0.14160260617733,0.147705637514591,1.59369606600727
5.43612145842053,2.53662739992142,-0.907459217905998,-0.090420173406601,2.69557723056742
5.44610745832324,3.66006405293942,-1.61231299817562,-0.214736071228981,4.00521330967431
5.45609445823357,4.76223028957844,-2.46551473259926,-0.096697159409523,5.36348306311115
5.46608145837672,5.80677806317806,-3.34646267473698,-0.208308519423008,6.70528719352706
5.47606845828705,6.76238383948803,-4.10984299063683,-0.804216392934322,7.95408125473457
5.48605445842259,7.5448868894577,-4.48246382474899,-2.68470989048481,9.1774433973172
5.49604145833291,7.95717698872089,-4.44282379567623,-3.71144295215607,9.84023158753722
5.50602845824324,7.56446219801903,-4.16330993056297,-2.65136205017567,9.03238388490518
5.51601445837878,6.13084829628468,-3.87210280358791,-0.801766994297504,7.29543084860346
5.5260014582891,5.2012825101614,-3.16196664869785,0.704832730293274,6.12765550726223
5.53598845819943,4.7684628367424,-2.46110008478165,1.5804570749402,5.59402324078424
5.54597545834258,3.06124952852726,-2.89328708946705,1.94251403689384,4.63850403055928
5.55596145824529,0.582715970277786,-3.47071951568127,2.47183206439018,4.30062851372855
5.56594845838845,-1.0049457514286,-3.68392186224461,2.73876564502716,4.69915242451436
5.57593545829877,-1.64184085249901,-3.09294143736362,2.32696320354938,4.20436509720177
5.58592145820148,-1.63252097547054,-2.28562631249428,2.05766237765551,3.48183670440421
5.59590845834464,-1.83905983507633,-2.09593386590481,1.99736998289824,3.4299514130408
5.60589545825496,-2.36933739066124,-2.90348755717278,2.36419739574194,4.43096253555314
5.61588245839812,-2.91047030210495,-3.99028380274773,3.46867562144995,6.0353055243912
5.62586845830083,-3.38432515025139,-4.77640803337097,5.00030259847641,7.69875032068223
5.63585545821115,-3.78137038886547,-4.98649907648563,6.12695814371109,8.75805635699887
5.64584245835431,-4.01920763969421,-4.70566140174866,6.06200785696507,8.66286433789596
5.65582845825702,-4.12677652716637,-3.99396754860878,4.79098981976509,7.47901362063234
5.66581545840018,-4.15777437150478,-2.70621653437614,3.05684715986252,5.82709277547838
5.6758024583105,-3.87013463079929,-1.10777780950069,1.1826180768013,4.1956762567328
5.68578945822082,-3.26891046881676,0.225627095103264,0.11410841345787,3.2786741175674
5.69577545835637,-2.63112074375153,1.1065411233902,-0.335388688445091,2.87397202461857
5.70576245826669,-2.03122331500053,1.60063552379608,-1.21630768686533,2.85785000036171
5.71574945840985,-0.959671930074692,1.88880794584751,-2.63114120900631,3.378086696845
5.72573545831256,-0.484985607862473,2.2776273214817,-2.88298838853836,3.70599774741441
5.73572245822288,0.0422554886341095,2.96908863902092,-2.78086121231318,4.06822589771398
5.74570945836604,0.218548455834389,3.65321287035942,-2.35456644684076,4.35174802307023
5.75569645827636,0.152490121722221,4.33066367447376,-2.10816828757524,4.81894953567345
5.7656824584119,-0.235899483561516,4.95368157863617,-1.79326970458031,5.27355913802334
5.77566945832223,-0.67979319870472,5.45296538293362,-1.25020955085754,5.63559883078391
5.78565645823255,-1.14562917530537,5.62951153457165,-0.677645808756351,5.78472732004812
5.79564245836809,-1.71919425308704,5.62230659544468,-0.226558556556702,5.88364590305852
5.80562945827842,-2.3201506125927,5.49373100101948,0.0662322887778282,5.96393879015819
5.81561645842157,-2.89212407827377,5.23009525001049,-0.0363559404015541,5.97658763532467
5.82560245832428,-3.40613234102726,4.88284139156342,-0.737319860458374,5.99895975618966
5.83558945823461,-3.67411257326603,4.55607032954693,-1.17776167184114,5.97025984396554
5.84557645837776,-3.71482498168945,4.32980705738068,-1.62991457909346,5.93327694734276
5.85556345828809,-3.68687412142754,4.17565749585629,-1.78445590406656,5.84922551997364
5.86554945842363,-3.57124133884907,4.00050415098667,-1.77885631799698,5.64996707622654
5.87553645833395,-3.20012177735567,3.60060605585575,-1.67169556617737,5.09899102032434
5.88552345824428,-2.89845368921757,2.88178327739239,-1.52848906874657,4.36371257986535
5.89550945837982,-2.91350325286388,1.7212729382515,-2.27067732095718,4.07520026849168
5.90549645829015,-1.22916542172432,0.935129996538162,-2.89347770869732,3.27986722217782
5.91548345820047,2.05169734060764,0.47039680480957,-2.86818236142397,3.5576966129527
5.92547045834363,3.99220636725426,-1.04092191517353,-4.00190046608448,5.74773324473928
5.93545645824634,4.48515120506287,-2.58653221607208,-4.3037179505825,6.73266057626714
5.94544345838949,4.14851004302502,-4.11531013727188,-2.81684380799532,6.48695014175797
5.95543045829982,5.02880192756653,-5.45425527870655,-1.78713802188635,7.63096401388887
5.96541645820253,6.45618562102318,-5.97390084207058,-1.72897606015205,8.96432832177498
5.97540345834568,6.99549712479115,-5.74993669509888,-1.57332201004028,9.1909789559047
5.98539045825601,7.26003334701061,-4.90590748786926,-1.4452004519105,8.88057525307005
5.99537645839155,7.49793082416058,-3.68389262616634,-1.05576302558184,8.42049090559486
6.00536345830187,6.59685676574707,-2.89568912565708,-1.08809754341841,7.28611631558437
6.0153504582122,5.307417075634,-1.82277767837048,-1.22889703452587,5.74468296783761
6.02533745835535,3.958221180439,-0.415666281580925,-1.02072533994913,4.10879223014908
6.03532345825806,1.43660299837589,-0.786579144001007,0.495789508223534,1.7112399484539
6.04531045840122,-1.3960987508297,-3.0389307063818,2.85301848471165,4.39589649950551
6.05529745831154,-3.33598738789558,-5.12886708319187,5.79511988461018,8.42718837372535
6.06528345821425,-3.78389229297638,-7.61284322977066,6.73294135451317,10.8446171997551
6.07527045835741,-0.815239856243134,-8.69870333611965,4.08408249735832,9.64426179643912
6.08525745826773,2.2573146790266,-4.19268458783627,1.60532674491406,5.02505199686183
6.09524445841089,0.631014556288719,1.11485703349113,-0.545060486197472,1.39218407870034
6.1052304583136,-2.5396527493,3.11073685348034,-0.229641208648682,4.02234445856362
6.11521745822392,-5.45843019068241,3.93349272072315,0.012394927740097,6.72807392682103
6.12520445836708,-4.98605410337448,3.80516738712788,0.764655301272869,6.31860206814797
6.13519045826979,-2.67559525072575,2.93419011712074,2.8326646193862,4.87773209955585
6.14517745841295,-1.59969412207603,0.760975940823555,4.26248309344053,4.61593628515205
6.15516445832327,-1.06245779514313,-1.49364141762257,5.64512886285782,5.9352557762213
6.1651514582336,-0.808386919498444,-2.7768631786108,6.503914103508,7.11796018464215
6.17513745836914,-1.34319606721401,-3.19937304139137,6.33507165849209,7.22310850335164
6.18512445827946,-1.82548903226852,-2.47210395991802,4.85902568221092,5.74924680075228
6.19511145842262,-1.40813933730125,-1.01117186665535,3.28054525852203,3.71043152886317
6.20509745832533,-0.596177430152893,0.580893977880478,1.96740651100874,2.13624757959397
6.21508445823565,-0.00859540700912476,1.69493590950966,1.02871000528336,1.98270670885461
6.22507145837881,0.174626510739326,2.49211371660233,0.631915319859982,2.5769055407997
6.23505845828913,0.0509584844112396,3.08895655989647,0.460449229180813,3.12350170301124
6.24504445842467,-0.252466399669647,3.3842374420166,-0.0377581027150154,3.3938515025307
6.255031458335,-0.897566898465156,3.3571040225029,-0.910521112382412,3.59232827720681
6.26501845824532,-1.38504342019558,3.25090279877186,-1.78315197497606,3.95807342639709
6.27500445838086,-1.77060414254665,3.04737116217613,-2.70806191563606,4.44467202036152
6.28499145829119,-2.46892658293247,2.93983034133911,-3.16859709888697,4.97777143738476
6.29497845820151,-3.13888008713722,2.77762682497501,-3.12392787963152,5.22749503848511
6.30496545834467,-3.39037409484386,2.58815832674503,-2.92811339825392,5.1736880559541
6.31495145824738,-3.46733514726162,2.56035773992538,-2.43291182756424,4.94943479000719
6.32493866654113,-3.47247777342796,2.58940436840057,-1.96233375906944,4.75540436262016
6.33492566668429,-3.28416760861874,2.61301834881306,-1.52529531955719,4.46543923758876
6.344911666587,-3.06612961471081,2.71238417744637,-1.12711162805557,4.24600510625766
6.35489866673015,-2.96760636985302,2.6252828836441,-0.829850878715515,4.04814158181897
6.36488566664048,-2.7551507127285,2.52327235937119,-0.677673583030701,3.79697252222776
6.3748726665508,-2.35666062712669,2.57525059819221,-0.617868553698063,3.54507073336873
6.38485866668634,-1.85819309413433,2.67373817503452,-0.58979110121727,3.30901963529994
6.39484566659667,-1.3945474845171,2.66645897626877,-0.522496958076954,3.05413968735828
6.40483266673982,-1.01811777412891,2.49512444794178,-0.407176416814327,2.72543619391901
6.41481866664253,-0.538086512088776,2.21754659593105,-0.215012059807777,2.29200353086117
6.42480566655286,-0.00121797502040863,1.87501787245274,0.0267694303393364,1.87520935041425
6.43479266669601,0.518708254694939,1.47375445246696,0.0914805659651756,1.56504924318827
6.44477966660634,0.970655924677849,0.96018882393837,-0.00312796801328659,1.36533705945171
6.45476566674188,1.3781735265255,0.265170060396194,-0.313715983629227,1.43808732298519
6.4647526666522,1.80380697190762,-0.526541769504547,-0.656622437238693,1.99050718461923
6.47473966656253,2.40968434810638,-1.35965013206005,-0.828453394174576,2.88817626980058
6.48472566669807,3.24054036319256,-1.96742434501648,-0.77087527692318,3.86860557454686
6.49471266660839,4.43415939152241,-2.1155653077364,-0.357852229177952,4.92599678224132
6.50469966675155,5.41826858997345,-1.94502833962441,0.122839475870132,5.75811247648628
6.51468666666187,6.33474187552929,-1.63975339651108,0.16743297368288,6.54566876886008
6.52467266656458,7.42104637026787,-1.57930429637432,-0.584753140211105,7.6097350496058
6.53465966670774,8.04248494148255,-2.25256557047367,-1.43516282916069,8.47439130731296
6.54464666661806,7.45354519486427,-3.39480862319469,-1.85582789540291,8.39786632052195
6.55463266675361,5.89502950429916,-4.36001611232758,-1.40963739395142,7.46647111684897
6.56461966666393,4.23669833421707,-4.66963962972164,-0.403963079452515,6.31809569539631
6.57460666657425,3.02098852515221,-4.42944770514965,0.691756894290447,5.40600649671781
6.58459366671741,2.7747383004427,-3.57285458564758,1.9985113593936,4.94555458768295
6.59457966662012,2.99374459326267,-2.29676993608475,3.25319081425667,4.98205874141967
6.60456666653045,2.17666988074779,-1.09261422514915,3.8716151458025,4.57395905665543
6.6145536666736,1.04066112935543,-0.248422465324402,3.9354015442729,4.07824406112419
6.62453966657631,0.0591837626695633,-0.0454474836587906,3.63450119554996,3.63526713351148
6.63452666671947,-0.849871160387993,-0.394545553922653,3.12564725339413,3.26306879118869
6.64451366662979,-1.34630035400391,-1.03811057388783,3.09207020223141,3.52861110670135
6.65450066654012,-1.20309151768684,-1.68030500650406,3.3483416774869,3.93474854393625
6.66448666667566,-1.30583937585354,-2.80190621852875,3.06897750109434,4.35597495805278
6.67447366658598,-2.01878394842148,-4.07833117604256,2.98536904156208,5.44249043418564
6.68446066672914,-3.22458214223385,-5.01188300907612,2.87937451690435,6.61873846720638
6.69444666663185,-4.87054645121098,-5.73123671472073,2.73024449765682,8.0014706167399
6.70443366654217,-5.63773155033588,-5.6542902803421,1.93562952518463,8.21594043714962
6.71442066668533,-5.14604269444942,-4.44223147273064,0.0355914169549942,6.79826761898763
6.72440766659565,-4.36014767467976,-2.30548170268536,-2.10360248923302,5.36202173243821
6.73439366673119,-3.75442466497421,-0.331490934491158,-2.95174345850945,4.78731451332267
6.74438066664152,-3.18581744134426,0.998466451764107,-3.00365153074265,4.49091199457352
6.75436766655184,-2.68041218698025,1.95287179470062,-2.29815748035908,4.03482905997018
6.76435366668738,-2.16204540967941,2.64834664106369,-1.473541906178,3.72283575168336
6.77434066659771,-1.44279169142246,3.23658998429775,-0.928852425813675,3.66332218351514
6.78432766674086,-0.74788694858551,3.74377454638481,-0.391644457876682,3.83778166698014
6.79431466665119,-0.00806740343570709,4.44005513906479,0.132318689525127,4.44203365099044
6.8043006665539,0.382507891058922,5.36421342015266,0.270173230469227,5.38461618670546
6.81428766669706,0.636272957324982,5.91511293590069,-0.141616931855679,5.95092090991562
6.82427466660738,0.769471360445023,5.69977050840855,-1.18011926919222,5.87129896297129
6.83426066674292,0.688618401288986,4.7042457908392,-2.16626973062754,5.22463858166813
6.84424766665325,0.259858449697494,3.99054751217365,-1.83836694002152,4.40131671968271
6.85423466656357,-0.775776997804642,3.81562103927135,-1.27035350114107,4.09567966075405
6.86422166670673,-1.90762720942497,4.05239935934544,-1.10194755077362,4.61251238940534
6.87420766660944,-2.71624947935343,4.53814276635647,-0.996035764217377,5.38189913000248
6.88419466675259,-3.33693580627441,4.98375439345837,-0.834985318779945,6.05558823832086
6.89418166666292,-3.79103174328804,5.2520667475462,-0.879646059572697,6.53681145432693
6.90416766656563,-4.02794221043587,5.18974127590656,-1.37038912832737,6.71086427552347
6.91415466670878,-3.86150443285704,4.88961889922619,-1.8088630592823,6.48780201854839
6.92414166661911,-3.48911777973175,4.1684999191761,-1.9354315969348,5.77028854767463
6.93412866652943,-2.71955520272255,3.21695386469364,-1.67109154880047,4.53181195910587
6.94411466666497,-1.71787950664759,1.87474656164646,-2.16503509104252,3.33963495238783
6.9541016665753,-0.550580257773399,0.474161242246628,-2.71121298015118,2.80689211186303
6.96408866671845,1.87312834471464,-0.800146438479424,-2.89069735765457,3.53623745417864
6.97407466662116,3.99633362442255,-2.25956702649593,-3.95827906787395,6.06170757823957
6.98406166653149,4.7254130038619,-3.42637247800827,-4.2048315936327,7.19375876339563
6.99404866667464,5.30952090382576,-4.44199290633202,-3.13595560222864,7.59977175625794
7.00403566658497,6.55704658269882,-5.69210539340973,-2.37633767724037,9.00232772418548
7.01402166672051,7.20939529001713,-6.59601301252842,-1.69463448554277,9.91738645756815
7.02400866663083,7.49842140555382,-6.35404061079025,-0.948872122764587,9.87423485462034
7.03399566654116,7.72489049971104,-5.58132053732872,-0.44939769923687,9.54080869030569
7.0439816666767,7.72174177408218,-4.43434942603111,-0.351074429154396,8.91134131949587
7.05396866658703,6.96149731993675,-3.07289133489132,-0.401621854305267,7.6201316396367
7.06395566673018,5.63990612983704,-1.62190418601036,0.0467511203885078,5.86867105989328
7.07394166663289,3.80005867481232,-0.125698179602623,0.490189337432385,3.83360555494487
7.08392866654322,1.24074846357107,0.400394523739815,1.13699049890041,1.72989014653666
7.09391566668637,-1.65688135296106,-0.718774246573448,2.1408194321394,2.8008927284623
7.1039026665967,-4.20572037041187,-2.51436471104622,3.11104763299227,5.80419943739003
7.11388866673224,-5.34305176198483,-4.64466675639153,4.26121220111847,8.26311447531369
7.12387566664256,-2.99580749094486,-7.50318630158901,4.68474123358727,9.33913634255476
7.13386266655289,-0.668380895555019,-8.71277524530888,3.03070952117443,9.249020796741
7.14384866668843,1.12875411093235,-3.20517289459705,1.91823932111263,3.90216109614519
7.15383566659875,0.0594299304485321,1.99571551322937,0.823920047879219,2.15992050123952
7.16382266674191,-6.08694623172283,2.54958599925041,-0.55890990883112,6.62296636573432
7.17380966665223,-7.15382861495018,2.78401315391064,0.165725294351578,7.67824576100657
7.18379566655494,-5.9664672768116,2.65461894929409,2.18048285007477,6.88478314768774
7.1937826666981,-4.93897875487804,2.01021602332592,3.50710498452187,6.38234008605238
7.20376966660842,-3.36827600508928,0.914521484971047,4.32273543477058,5.55586846784147
7.21375566674396,-2.08871810942888,-0.269007588028908,4.65520694732666,5.10940898201658
7.22374266665429,-1.47960312992334,-1.50117730915546,4.74572359979153,5.19274987085075
7.23372966656461,-1.35740597069263,-2.24941626012325,4.30143168926239,5.04031140486077
7.24371666670777,-0.760574237108231,-2.46278349816799,3.63551978051662,4.45654348161543
7.25370266661048,-0.45210028231144,-1.99916712462902,2.41051055967808,3.16411520267247
7.26368966675364,-0.248677988648415,-1.05387174367905,0.698647545576096,1.28864067416128
7.27367666666396,0.561603428721428,0.279860020279884,-1.15167227268219,1.31151403567315
7.28366266656667,1.46060114085674,1.3161351531744,-2.234725715518,2.97650238664289
7.29364966670983,1.86144706964493,2.12004427492619,-1.85823343992233,3.37825464374469
7.30363666662015,1.73694055259228,2.6136469244957,-1.0175745677948,3.29902572439018
7.31362266675569,0.917876617312431,2.87888832092285,-0.610068368017673,3.08264153975299
7.32360933325253,-0.566129173636436,3.06912748217583,-1.12275808364153,3.31671998478491
7.33359633339569,-1.92056125044823,3.27819818615913,-1.78956578582525,4.19972434407982
7.34358333330601,-2.90487451672554,3.52155403912067,-2.4894625890255,5.19971756834216
7.35356933320873,-3.41158720850945,3.88232432126999,-3.24155017733574,6.10073905104743
7.36355633335188,-3.69578235447407,4.08605827152729,-3.85642115592957,6.72507721456487
7.37354333326221,-3.81022639811039,4.24657778978348,-4.07983040213585,7.01400486453578
7.38352933339775,-3.91964242100716,4.19077956497669,-4.01230500161648,7.001772739584
7.39351633330807,-4.01868255972862,3.95685176253319,-3.67784397393465,6.73298014872585
7.4035033332184,-4.17417990446091,3.55475277543068,-3.03461429178715,6.26649256515606
7.41349033336155,-4.31873009204865,2.94247971475124,-2.19521812587976,5.66820951446576
7.42347633326426,-4.35978982508183,2.3907662665844,-1.28884473592043,5.13659920702742
7.43346333340742,-4.12429672300816,1.98361060738564,-0.50869372844696,4.60470453020711
7.44345033331774,-3.50094611227512,1.77435103833675,0.000826796293258667,3.92491349865104
7.45343633322045,-2.62168801546097,1.64296059429646,0.377495657801628,3.11690079028539
7.46342333336361,-1.71523861169815,1.56094813227654,0.608316249847412,2.39763450645552
7.47341033327393,-0.828865622878075,1.67372981250286,0.747201654911041,2.01164112583525
7.48339633340947,0.067013184428215,1.75835305631161,0.971669539511204,2.01008406081474
7.4933833333198,1.10589208245277,1.64116900742054,1.21168078511953,2.32047480787388
7.50337033323012,2.23873807489872,1.35582137525082,1.44591088861227,2.99012676443588
7.51335733337328,3.32301066219807,0.792610546946526,1.53958006739616,3.747123980353
7.52334333327599,4.3252286875248,-0.133583149909973,1.42352570056915,4.55542238189921
7.53333033341914,5.47279855370522,-1.33547598838806,1.34756481438875,5.79231827975445
7.54331733332947,6.67466975748539,-2.42992331564426,1.36963074445724,7.23406055183147
7.55330333323218,7.53330940246582,-3.30993979632854,1.16526237130165,8.31049266906427
7.56329033337534,7.8450829410553,-4.12225896835327,0.321920796632767,8.8680312557811
7.57327733328566,7.90229209899902,-4.71972337067127,-0.823857482671738,9.24125263507698
7.5832633334212,7.7691539222002,-4.94740283846855,-1.95954200595617,9.41681221996235
7.59325033333153,7.18320385694504,-4.92419290065765,-2.68890000522137,9.11461884070841
7.60323733324185,6.24246813476086,-4.8703172403574,-2.90642432123423,8.43419828853277
7.61322433338501,5.12988215982914,-4.57761556506157,-2.4163972440362,7.28760803530301
7.62321033328772,3.77659029006958,-4.22813976466656,-1.13752727329731,5.78219408063216
7.63319733319804,2.41384113371372,-3.75003925323486,0.711663447618485,4.51618071851502
7.6431843333412,1.19086908280849,-3.04062932252884,2.70340782433748,4.23934071691583
7.65317033324391,0.207649830579758,-2.057906498909,3.5857403871417,4.13952071312257
7.66315733338706,-0.65099507689476,-1.03097404718399,2.74317181438208,3.00194831390022
7.67314433329739,-1.51630697965622,-0.382513738274574,1.65381214946508,2.27609275782892
7.6831303332001,-2.11786033987999,-0.00583025872707367,1.25547116786242,2.46202645487152
7.69311733334325,-2.33088610053062,0.0652613586187363,1.5490686365962,2.79944685598095
7.70310433325358,-2.2476521551609,-0.452106714248657,2.3585179951787,3.28921690152077
7.71309133339673,-1.9207501155138,-1.3845148319006,3.30119411587715,4.06251706663504
7.72307733329944,-1.97761545717716,-2.513493475914,4.00442850977182,5.12484731868196
7.73306433320977,-2.43761591255665,-3.54493822395802,4.47280042380095,6.20600531581966
7.74305133335292,-3.3091632860899,-4.10329820215702,4.2571182730794,6.77574156685575
7.75303733325563,-4.11544696211815,-3.91774090647697,3.28643048107624,6.56400965989825
7.76302433339879,-4.64834290087223,-2.96572649002075,1.8278735268116,5.80893681905035
7.77301133330911,-4.88257358908653,-1.84491523683071,0.196260623931885,5.22319397652831
7.78299833321944,-4.7591704416275,-0.780356537103653,-1.08070256978273,4.94232512708303
7.79298433335498,-4.27864275097847,0.166747387647629,-1.98202747374773,4.71837062856223
7.8029713332653,-3.70732885122299,1.03269078969955,-2.94216338038445,4.84428145704974
7.81295833340846,-2.80035027444363,1.85994725883007,-3.71301029831171,5.00877339680832
7.82294433331117,-2.16490294396877,2.38008457303047,-3.62927232295275,4.85007473403587
7.8329313332215,-1.70286999642849,2.47160343825817,-2.64128583580255,3.99812214009992
7.84291833336465,-1.16711476922035,2.27289926290512,-1.6203152051568,3.02549984430825
7.85290433326736,-0.215942351818085,2.3855236530304,-1.34741454094648,2.74825037862823
7.86289133341052,0.515053744912148,2.67019476234913,-1.29658264875412,3.01269762738895
7.87287833332084,1.27309087514877,3.04344709575176,-1.13612481862307,3.48914175758426
7.88286533323117,2.12962493777275,3.46113943755627,-1.01781167238951,4.18935904193508
7.89285133336671,1.99068690776825,3.78179138839245,-1.23430687844753,4.44840352713893
7.90283833327703,0.939306077957153,4.30482775211334,-1.60908942818642,4.69073626111656
7.91282533342019,-0.753300008475781,4.92793745756149,-1.59273564308882,5.23343437115369
7.9228113333229,-2.50638296931982,5.58288700640202,-1.32835583388805,6.26219706944562
7.93279833323322,-3.39600671768188,6.19685400545597,-1.02630913853645,7.14053020715686
7.94278533337638,-3.94050323992968,6.55257404744625,-1.27038536846638,7.75097873920293
7.9527723332867,-4.2949170139432,6.64841166615486,-1.51249868810177,8.05824683916002
7.96275833342224,-4.19172944515944,6.47315365612507,-1.59632144808769,7.87531308348098
7.97274533333257,-3.54589365899563,5.93611905813217,-1.86009080797434,7.16036375662131
7.98273233324289,-2.39332208454609,4.78692600488663,-2.23802383750677,5.80098283688932
7.99271833337843,-0.659737249016762,2.8679177749157,-2.91523987591267,4.14232170835739
8.00270533328876,1.74295412153006,0.62592923283577,-3.5350640308857,3.99078365446422
8.01269233319908,4.51973163843155,-1.66496425151825,-3.93839327216148,6.2218181915321
8.02267933334224,6.18141969501972,-3.7873965293169,-3.90041180580854,8.23210387271383
8.03266533324495,5.65330794811249,-5.00151823461056,-2.81256773918867,8.05516062501913
8.04265233338811,5.26211167931557,-5.81597222507,-1.74990324497223,8.03601354000473
8.05263933329843,5.58601702094078,-6.68315114378929,-1.45909957587719,8.83159481301635
8.06262533320114,5.46282086491585,-7.38865864276886,-1.32536761432886,9.28392630596746
8.0726123333443,5.16330309033394,-7.22249656140804,-1.03446629673243,8.93835979927404
8.08259933325462,5.17020982146263,-5.95951493740082,-1.0748632478714,7.96255102895277
8.09258633339778,5.37760237455368,-4.29648319065571,-1.01137710392475,6.95710131827442
8.10257233330049,4.99619142115116,-3.09387114465237,-0.479660256206989,5.89610391172693
8.11255933321081,3.268556419909,-3.069111109972,1.22476743847132,4.64789838032433
8.12254633335397,1.21176469266415,-3.56299910366535,3.00676926612854,4.81705280257988
8.13253233325668,-1.06877249568701,-3.9000928401947,4.18487972438335,5.81946880026261
8.14251933339983,-3.46989096522331,-5.14755595386028,5.08142452955246,8.02236566470254
8.15250633331016,-3.56008397430182,-7.8835815936327,5.42163190841675,10.2087780462653
8.16249233321287,-0.469846874177456,-7.76522166967392,3.68655310928822,8.60872217532604
8.17247933335602,1.85577848643065,-2.46341148912907,1.23376016378403,3.32181789043474
8.18246633326635,0.667631867229938,2.57040968835354,1.32961912482977,2.96995375270992
8.1924533334095,-4.18339423924685,3.77237269341946,1.42205512583256,5.80980411717358
8.20243933331221,-6.4217548763752,3.10001013636589,0.0485459232330322,7.13101361970951
8.21242633322254,-5.71500016629696,2.39910147249699,0.0326303869485855,6.19822390030111
8.22241333336569,-4.71214011669159,1.21631031811237,1.05067682504654,4.97871439831316
8.2323993332684,-3.48849563598633,0.123847535848618,2.27155206441879,4.1647195338698
8.24238633341156,-2.21013525009155,-0.708857368826866,3.55788074344397,4.24802212536691
8.25237333332188,-1.31528993815184,-1.37469560265541,4.51843823432922,4.90265843179104
8.26236033323221,-1.59850713729858,-1.77320381462574,4.86515064060688,5.41933276261897
8.27234633336775,-2.45103819608688,-1.71638466596603,4.41770708084106,5.33570055497434
8.28233333327808,-3.10874996960163,-1.03690838634968,3.24035646826029,4.60862402638539
8.29232033342123,-2.40550358891487,-0.0121850126981735,2.4018268597126,3.39931879276623
8.30230733333156,-0.990283273458481,1.05822148740292,2.12955594062805,2.57594685161731
8.31229333323427,0.0527588421106339,2.14233912348747,2.01581297814846,2.94209149727157
8.32228104164824,0.499292575120926,2.73886972546577,1.90300790905952,3.37226030291064
8.33226804155856,0.812674682736397,3.01840230166912,1.36007697880268,3.40895907616257
8.34225404169411,0.422228026986122,3.18196821928024,0.203644780218601,3.21631302142568
8.35224104160443,-0.630178404450417,3.14080674469471,-1.38340678453445,3.48935612405088
8.36222804174759,-1.56632406234741,3.10860495865345,-2.3940790066123,4.22473787910624
8.37221504165791,-2.20240698516369,3.32963497281075,-3.15011463493109,5.08530115073525
8.38220104156062,-2.8487137645483,3.4414302277565,-3.79610566467047,5.86251058354578
8.39218804170378,-3.38558697938919,3.46695800185204,-4.23174223423004,6.43347801104362
8.4021750416141,-3.69580515861511,3.53524470984936,-4.60632890224457,6.88296425129592
8.41216104174964,-3.82136183559895,3.59442905724049,-4.24499699503183,6.74853510133393
8.42214804165997,-3.98041019439697,3.54610181987286,-3.45062088131905,6.35021951582463
8.43213504157029,-4.08052680552006,3.40409341692925,-2.77381853342056,5.99438239171444
8.44212204171345,-4.07872527837753,3.21063068568707,-2.21243934541941,5.64260907324893
8.45210804161616,-3.83877425909042,3.13111206114292,-1.6112938284874,5.20925314737261
8.46209504175931,-3.37745174825192,3.09229882836342,-1.005827511549,4.68840925460401
8.47208204166964,-2.93709852218628,2.88386956393719,-0.365622301697731,4.13242435603253
8.48206804157235,-2.45840627253056,2.60134730637073,0.203266173005104,3.58498066190991
8.4920550417155,-2.07918451666832,2.14547323107719,0.695730954408646,3.06758947718635
8.50204204162583,-1.64715831041336,1.55497870981693,0.952021433115005,2.4571190644041
8.51202904153615,-1.06985744655132,0.832411959171295,0.710671175122261,1.53054178148209
8.52201504167169,-0.353807417750359,0.275240719914436,0.182753263413906,0.484082532263483
8.53200204158202,0.612429181337357,-0.144122756123543,-0.340688897073269,0.715478717765379
8.54198904172517,1.6797389960289,-0.656559287309647,-0.84768196284771,1.99277643067909
8.55197504162788,2.94889937281609,-1.27789787113667,-1.16645169496536,3.41901155843883
8.56196204153821,4.42969328820705,-1.80616515398026,-1.2398260653019,4.94181989384894
8.57194904168136,5.97081351220608,-2.22876389443874,-1.00674201607704,6.45225014871799
8.58193604159169,7.38397853136063,-2.41417033195496,-0.33224464058876,7.77571500535392
8.59192204172723,8.38296772420406,-2.41014920175076,0.405738878846169,8.73198666269906
8.60190904163756,8.8271906375885,-2.38435362517834,0.868662942051888,9.18471622148041
8.61189604154788,9.08074228048325,-2.33413890659809,0.643468248546123,9.39798575157134
8.62188204168342,9.0628650033474,-2.19847297847271,-0.399190289676189,9.33424653592058
8.63186904159375,8.62112832605839,-2.22037664830685,-1.76494316071272,9.07573415406485
8.6418560417369,7.8212134373188,-2.5819287031889,-2.35165453344584,8.56551309059319
8.65184304164723,6.77412738740444,-3.04610523998737,-1.80383562326431,7.64338811978162
8.66182904154994,5.46105851411819,-3.16394710063934,-0.817731062471867,6.36415001715062
8.67181604169309,4.03412739515305,-2.82691359043121,0.0483222672343254,4.92625205705105
8.68180304160342,2.7387615519762,-2.12942788660526,0.930503094792366,3.5918120736271
8.69178904173896,1.6684696573019,-1.37065342247486,2.17273411989212,3.06320997609086
8.70177604164928,0.952822501659393,-0.404814434051514,3.42156957507133,3.57475646761269
8.71176304155961,0.00211318373680115,0.0721476244926453,4.67575523257256,4.6763123013968
8.72175004170276,-1.1216246008873,0.0627768766880035,4.69180583953857,4.82441962493838
8.73173604160547,-2.03432292401791,0.00841940581798553,3.50907549619675,4.05612518095627
8.74172304174863,-2.48299381434917,0.0646661120653152,2.74464618980885,3.70169186931842
8.75171004165895,-2.74796799302101,-0.1921231341362,2.7045348751545,3.86040778678434
8.76169604156166,-2.78897627055645,-0.844354312419891,3.20501092672348,4.33167610550996
8.77168304170482,-2.63995003938675,-1.86704577863216,3.9689671933651,5.11936487583906
8.78167004161514,-2.53293546795845,-3.00477478086948,4.55990142524242,6.01972877931548
8.7916570417583,-2.78978786408901,-3.60369163155556,4.41141635388136,6.34272054793949
8.80164304166101,-3.26531209230423,-3.2955620777607,3.71959133952856,5.94628894367054
8.81163004157133,-3.88040292620659,-2.29819314837456,2.5571742233634,5.18443426282778
8.82161704171449,-4.01493800282478,-1.24456289470196,1.11925910979509,4.34987412694378
8.83160404162481,-3.69083210170269,-0.298065910935402,-0.135153419673443,3.70531393232345
8.84159004152752,-3.24937667548656,0.481115920543671,-0.963351875245571,3.42315178508577
8.85157704167068,-2.48632438838482,1.1863918697834,-1.43783939212561,3.10752582459317
8.86156404158101,-2.05627746462822,1.77781668305397,-1.34460641562939,3.03263508900009
8.87155004171655,-1.44067090630531,2.09233665883541,-1.47956804662943,2.93981750433389
8.88153704162687,-0.132314304113388,2.43252474188805,-1.83709546297789,3.05116427533236
8.8915240415372,1.67209493100643,2.82747609257698,-2.13172730416059,3.9159652464872
8.90151104168035,3.27296492815018,3.03120068728924,-2.32219392210245,5.02922077854745
8.91149704158306,4.50866052031517,3.14760764122009,-2.6443202483654,6.10146565395816
8.92148404172622,4.27762825906277,3.40847122728825,-2.31763104736805,5.94030245877334
8.93147104163654,1.90328799068928,3.77898706376553,-1.96041733413935,4.66331261311133
8.94145704153925,-1.32848651915789,4.5405313539505,-1.12999021232128,4.86396744312025
8.95144404168241,-3.42927211225033,5.32215790629387,-0.4747287145257,6.34906602200508
8.96143104159273,-4.46281864196062,5.86886438369751,-0.19244853168726,7.37545631284011
8.97141804173589,-5.04116644978523,6.31152901411057,-0.177769096791744,8.07962619940885
8.9814040416386,-5.21321258425713,6.51335384845734,-0.624158111214638,8.36605863902865
8.99139104154892,-5.0142809522152,6.51085825681686,-1.30388377457857,8.32072121908418
9.00137804169208,-4.94490432322025,6.31424329161644,-1.94175857663155,8.2517981968446
9.01136404159479,-5.12546985089779,5.87239317834377,-2.50944018602371,8.1885733116796
9.02135104173794,-5.14120236933231,5.02334413647652,-2.97855177283287,7.78059887022503
9.03133804164827,-4.9525437104702,3.91993010401726,-2.70037428885698,6.86917480665753
9.04132504155859,-4.21651842355728,2.6392711776495,-2.3907174423337,5.51908596186433
9.05131104169413,-2.55602056771517,1.18879858374596,-2.39065195351839,3.69617369426285
9.06129804160446,0.40465246617794,-0.694506547451019,-2.52462335854769,2.64949166168924
9.07128504174762,3.94688752233982,-3.21315609812737,-2.82692353069782,5.82183732797026
9.08127104165033,6.27834723472595,-5.81351464033127,-3.01026122331619,9.0706267206703
9.09125804156065,7.94674029350281,-7.31548015415669,-2.78420903563499,11.1543153591941
9.10124504170381,9.46067330360413,-7.51438430428505,-2.51948862612247,12.3417232900099
9.11123204161413,9.2562347638607,-6.62870596468449,-1.62185126870871,11.4999141869737
9.12121804174967,8.59131980538368,-5.1155564814806,-0.496746989786625,10.0113161814748
9.13120504166,8.94955415010452,-3.69182495892048,0.202121872901917,9.68323005326563
9.14119204157032,8.8752424710989,-2.43327318549156,0.806809048354626,9.23805651403675
9.15117804170586,7.63883936583996,-0.375207642316818,1.57524165093899,7.80858718916631
9.16116504161619,5.72376397311688,2.21032353043556,1.83905574202538,6.4053985162068
9.17115204175934,2.33400792896748,3.33109853088856,1.27420857042074,4.26232541177989
9.18113904166967,-0.596363956332207,2.87142084181309,0.619582957327366,2.99743067646631
9.19112504157238,-1.46407497167587,1.9130393922329,0.700461644232273,2.50876099976923
9.20111204171553,-2.12004895269871,-0.341729409098625,1.09118370383978,2.4087483111374
9.21109904162586,-2.50392216861248,-3.927805134058,1.67460601776838,4.94990754583835
9.22108504152857,-1.64408267498016,-7.36884242892265,2.35531781405211,7.90887909818148
9.23107204167172,0.780780460238457,-9.64133589506149,2.05345998376608,9.88846165353438
9.24105904158205,2.02490247488022,-10.2027539670467,1.12476660221815,10.4623858872787
9.2510460417252,0.680559183955193,-6.16455690979958,1.63575331628323,6.41409476144179
9.26103204162791,-0.587039986252785,0.0515221560001373,1.61155022889376,1.71591509646197
9.27101904153824,-6.89865963220596,2.28188818752766,0.928375000655651,7.32532583324788
9.28100604168139,-9.48147068023682,2.59246830940247,0.866684828996658,9.86764008201857
9.2909920415841,-6.35382309436798,3.4380552148819,1.43925880372524,7.36632591453848
9.30097904172726,-4.35017115533352,3.33206566035748,1.91608549922705,5.80500079982574
9.31096604163758,-3.40618145763874,1.97037309587002,3.14398236751556,5.03677152415505
9.32095304154791,-2.71953005969524,-0.129275506138802,4.57500478327274,5.32383552235059
9.33093916671351,-2.43351759910583,-2.28258283674717,5.65232970893383,6.56361359696521
9.34092616662383,-2.34839734196663,-3.91104233622551,5.8178649687767,7.39315731108323
9.35091316653416,-2.11093548238277,-4.47371931374073,4.75830856204033,6.86379730765017
9.36090016667731,-1.44430202722549,-3.83286506295204,2.7006195795536,4.90613993380889
9.37088616658002,-0.98790930390358,-2.31764449596405,0.313090331554413,2.53879230306943
9.38087316672318,-0.40894432246685,-0.437994459271431,-1.0606428194046,1.21821089946893
9.3908601666335,0.138707649707794,1.22631782770157,-1.64299070745707,2.05487559025271
9.40084616653621,0.440573666095734,2.3250096487999,-1.73329072058201,2.933269804216
9.41083316667937,1.11838348925114,3.09515987098217,-1.84624430894852,3.77351484749864
9.42082016658969,1.41676982760429,3.8899794960022,-1.82931398838758,4.52609841826687
9.43080716673285,0.912719957828522,4.14609163463116,-2.20048383593559,4.7817635529573
9.44079316663556,-0.593019933700562,3.78380224585533,-2.40594066828489,4.52298381345912
9.45078016654588,-1.9583149677515,3.32591322004795,-2.25506934821606,4.47012684668712
9.46076716668904,-2.81545480191708,2.97123105883598,-2.18946768164635,4.64206510893625
9.47075316659175,-3.35972182095051,2.69591432511806,-2.00360691547394,4.75080260948429
9.4807401667349,-3.74963638007641,2.44826486170292,-1.95121790975332,4.88477483075565
9.49072716664523,-3.97931384146214,2.20866876840591,-1.96141457676888,4.95583529986069
9.50071416655555,-4.10832622289658,2.11707388937473,-2.01411553144455,5.04152829812727
9.51070016669109,-4.13406566619873,2.13981429576874,-2.10020467221737,5.1068741729186
9.52068716660142,-4.0752263045311,2.16861651062965,-1.98968089431524,5.02684762694483
9.53067416674458,-3.92610184013844,2.32233747124672,-1.88705816656351,4.93644766137443
9.54066016664729,-3.52095236063004,2.68139159560204,-1.66923388838768,4.73004314873906
9.55064716655761,-2.88573891878128,3.08566808581352,-1.382058416605,4.44510091112516
9.56063416670077,-2.23960404753685,3.30085088431835,-1.12857226252556,4.14549372234367
9.57062116661109,-1.59154076457024,3.2187127071619,-0.818021961450577,3.6826992038381
9.58060716674663,-0.978067270517349,2.94353221356869,-0.38134078681469,3.12512692120853
9.59059416665696,-0.381575260162354,2.60790554344654,0.105726722180843,2.6377924752509
9.60058116656728,0.306953094005585,2.29995549917221,0.808764941990376,2.45725786833307
9.61056716670282,1.08667579293251,1.69759756207466,1.13334037452936,2.31239316861248
9.62055416661315,2.12231416404247,0.900577045083046,1.04657529562712,2.53191158503665
9.6305411667563,3.15760287165642,-0.12132797062397,0.960213089883328,3.3026028446563
9.64052816666663,4.26635073423386,-1.31276949584484,0.966385703086853,4.56716691876366
9.65051416656934,5.32319461762905,-2.60066844463348,0.82332392424345,5.98144962198119
9.66050116671249,6.30730790913105,-3.98494880318642,0.195586732327938,7.46325694281436
9.67048816662282,7.13445152699947,-5.13848984599114,-1.15032156586647,8.8672270859247
9.68047516653314,7.62735134124756,-5.71768579244614,-2.77508182436228,9.92821728387716
9.69046116666868,7.67834023118019,-5.86665179729462,-4.22813713341951,10.5475900392204
9.70044816657901,6.85964233160019,-5.91100234329701,-5.00676377177239,10.3470925909782
9.71043516672216,5.74454322338104,-5.86923158884049,-4.22922997802496,9.23764269149663
9.72042116662487,4.25770738005638,-5.52281154334545,-2.38389344930649,7.36969927847417
9.7304081665352,2.71580012083054,-4.57976500153542,-0.523992675840855,5.35017626718286
9.74039516667835,1.77384291529655,-3.20715977847576,1.00925602644682,3.80144581175895
9.75038216658868,1.29347426891327,-1.72935846805573,2.74317912340164,3.49124449135883
9.76036816672422,0.858082405328751,-0.401178050637245,4.87686027467251,4.96799913258111
9.77035516663455,-0.0810733991861343,-0.147679032683373,6.22599477410317,6.22827367092277
9.78034216654487,-1.15663831293583,-0.536707738637924,5.55701717019081,5.70143027787417
9.79032816668041,-1.76761036813259,-0.677313979268074,3.8309123852849,4.27306568446719
9.80031516659074,-2.0193388491869,-0.832383307814598,2.94556733697653,3.66700944853253
9.81030216673389,-1.87868407666683,-1.29032320439816,3.0949069789052,3.84354485336206
9.82028916664422,-1.45014573454857,-2.20947509944439,3.88876678347588,4.70183049064505
9.83027516654693,-1.29076291501522,-3.49770909368992,4.68494705557823,5.98738396300345
9.84026216669008,-1.87447057306767,-4.49073588073254,4.9351821577549,6.93082762806994
9.85024916660041,-2.75105181455612,-4.73274862825871,4.55982599616051,7.12454972471372
9.86023616674356,-3.47426585197449,-4.15812754333019,3.71203936815262,6.56808831757857
9.87022216664627,-3.70199911415577,-3.02678545475006,2.53760505437851,5.41347088680673
9.8802091665566,-3.53257604062557,-1.64513108074665,1.26005275368691,4.0955198324162
9.89019616669975,-3.01436655342579,-0.397874373793602,-0.491949056982994,3.08005253370785
9.90018216660246,-2.34562225341797,0.572120230793953,-1.98594832420349,3.12622073126962
9.91016916674562,-1.59937135577202,1.32066733002663,-2.64450385093689,3.36088553031544
9.92015616665594,-0.718231624960899,1.83254252851009,-2.93360773444176,3.53272177300571
9.93014316656627,0.620134057402611,2.50779770314693,-2.73104439675808,3.75928438218278
9.94012916670181,1.82038207411766,3.28661876142025,-2.47315441220999,4.49801584316043
9.95011616661213,2.42168283462524,3.64439760804176,-1.95684059232473,4.79326681719148
9.96010316675529,2.42865037679672,3.9177034842968,-1.47355067700148,4.83922461157546
9.97009016666561,1.62508799493313,4.26491348862648,-1.30340401053429,4.74649977050676
9.98007616656832,0.145281674265862,4.6908615142107,-1.18293967366219,4.83990028635969
9.99006316671148,-1.6725346416235,5.09796513319016,-0.937201372683048,5.44655552065818
10.0000501666218,-3.27585988461971,5.3257948744297,-0.707888485193253,6.29257142475408
10.0100361667573,-4.27615593016148,5.58426227152348,-0.790467542409897,7.07773506086652
10.0200231666677,-4.99349351584911,5.63397822260857,-0.896593044698238,7.5815939744526
10.030010166578,-5.50165748655796,5.53860604226589,-1.36061813861132,7.92437213348425
10.0399971667212,-5.4177698224783,5.48485434293747,-1.94636618256569,7.95136455768643
10.0499831666239,-5.29334165811539,5.3562647151947,-2.2966024133563,7.87295498868205
10.0599701665342,-5.25549029231072,5.07826820254326,-2.56727558076382,7.74595959562922
10.0699571666773,-5.35712484061718,4.51758863389492,-2.65657074987888,7.49431529708794
10.0799441665877,-5.54330837309361,3.65748601555824,-2.46250692486763,7.08303692128135
10.0899301667232,-5.37633235931397,2.61461288452148,-2.20599746793509,6.37240731609713
10.0999171666335,-4.29907146066427,1.4400049084425,-2.13427727490664,5.0110646619675
10.1099041665439,-1.49490061551332,0.212689545750618,-2.54108414769173,2.95585407941324
10.1198901666794,3.63403692662716,-1.52136248230934,-3.44324812710285,5.23227731026037
10.1298771665897,6.97579551637173,-3.73201228737831,-3.38461546450853,8.6049555862866
10.1398641667329,7.70428549647331,-5.05503487586975,-2.29990170478821,9.49731227553966
10.1498511666432,8.66924974143505,-5.46667710363865,-1.83506560206413,10.4119121874273
10.1598371665459,9.40842375397682,-5.62253463685513,-1.35940893441439,11.0444251062695
10.1698241666891,8.6098402762413,-5.38422785460949,-0.571683736145496,10.1708446781432
10.1798111665994,8.21492634773255,-4.52708802044392,-0.0782860314846039,9.38006767279654
10.1897981667425,8.46399434566498,-3.41651991963387,0.130658957362175,9.12846539172071
10.1997841666453,7.62577259302139,-2.31602774083614,0.753495305478573,8.00525747944294
10.2097711665556,5.18579849839211,-1.03993548989296,1.53402111947536,5.50701304556846
10.2197581666987,2.82518281459808,0.17110063970089,1.72718622744083,3.31573606143006
10.2297441666014,1.4385629850626,0.442672816514969,1.04963514357805,1.83498136750966
10.2397311667446,-0.231576637029648,-0.810543372631073,0.834859018921852,1.1864223022218
10.2497181666549,-2.47649697303772,-2.41264245450497,1.66452483326197,3.83725472066822
10.2597051665653,-3.90486358344555,-3.52309594988823,2.66754012644291,5.89711242928445
10.2696911667008,-3.38583373188972,-5.56339940607548,2.7328476780653,7.06284216466928
10.2796781666111,-0.523302412033081,-8.55017119467258,1.9620063149929,8.7879884872888
10.2896651667543,1.68410803556442,-8.51454586386681,1.81226438462734,8.86667995041733
10.2996521666646,2.56456831991672,-2.48175946712494,1.66052767664194,3.93617744583227
10.3096381665673,-1.13102516949177,2.495982234478,1.13413618057966,2.96570567065471
10.3196251667105,-6.76176929712296,2.62843804121017,0.0160359889268875,7.25468591442361
10.3296110415831,-7.49860968589783,2.112035343647,0.315127793848515,7.7967394493282
10.3395970417187,-5.9652744448185,1.94797592103481,1.35432097971439,6.41975815019776
10.349584041629,-4.22447560697794,1.38464171648026,1.96207765102387,4.8593390029526
10.3595710415393,-2.65822960495949,0.587485544085503,3.08645570576191,4.11552338358352
10.3695580416825,-1.47794515192509,-0.33283637881279,4.69674235135317,4.93502691402535
10.3795440415852,-1.01668754518032,-1.2602480506897,5.85660861968994,6.07632645913783
10.3895310417283,-1.36040617704391,-1.77499832510948,5.76525113761425,6.18380503415519
10.3995180416387,-1.90555671036243,-1.431796002388,4.36331657320261,4.97189276703009
10.409505041549,-2.00393435955048,-0.653393604755402,2.40347928285599,3.19677787517997
10.4194910416845,-1.68860279023647,0.323862656950951,0.727219380140305,1.86684611862183
10.4294780415948,-0.527052231431007,1.43126332104206,-0.0981379133462906,1.52837488819096
10.439465041738,0.554922984838486,2.39257948815823,-0.289948221445084,2.47314498106696
10.4494510416407,1.29664170563221,3.00593837678432,-0.464367156028748,3.30644553764429
10.459438041551,1.31361383378506,3.21905710816383,-0.644999341964722,3.53609023090001
10.4694250416942,0.911383869051933,3.40492898404598,-1.33570227563381,3.76938489840157
10.4794120416045,0.135901570916176,3.3352822136879,-2.4345613270998,4.13154517551609
10.4893980417401,-0.649364873170853,3.14461035847664,-3.26580004245043,4.57992346687322
10.4993850416504,-1.58315001010895,3.06896785318851,-3.486323980093,4.90707474291802
10.5093720415607,-2.36180091440678,3.05387151181698,-3.41368957489729,5.15339803272971
10.5193590417039,-2.80647991061211,3.06704587340355,-3.22470317959785,5.26135063217988
10.5293450416066,-3.15686027526855,3.04960362911224,-2.9103264605999,5.26648357061248
10.5393320417497,-3.38688798487186,2.96041546404362,-2.58542182981968,5.18839820945985
10.5493190416601,-3.46293979525566,2.77148490965366,-2.3568910074234,5.02274982961292
10.5593050415628,-3.51535774469376,2.54803239405155,-2.17419358491898,4.85564896785355
10.5692920417059,-3.50103966772556,2.44237262248993,-1.92945925086737,4.68457850642231
10.5792790416162,-3.32765101253986,2.43371055722237,-1.60178450167179,4.42288615356411
10.5892660417594,-2.96125220060349,2.51267369627953,-1.34507740885019,4.10996069754361
10.5992520416621,-2.42908248603344,2.64346713960171,-1.04236237674952,3.73829902048663
10.6092390415724,-1.85225290775299,2.68456312537193,-0.737219580709934,3.34383204102243
10.6192260417156,-1.39342891216278,2.50122017025948,-0.286092275083065,2.87742858525215
10.6292120416183,-0.89082798242569,2.09359439492226,0.319762004613876,2.29759868652408
10.6391990415286,-0.377810822725296,1.59103205680847,0.854370592832565,1.84501304425135
10.6491860416718,0.334125689864159,0.965023886561394,1.19083341479301,1.56875597211576
10.6591730415821,1.09723294079304,0.450513932704926,1.02536598265171,1.56788339116846
10.6691590417176,1.90658406615257,-0.0184555667638779,0.508315998315811,1.97326849754291
10.679146041628,2.75231481313705,-0.531107275485992,-0.17195433318615,2.80835896234604
10.6891330415383,3.60625154256821,-1.12324603378773,-0.630966024398804,3.82947123825745
10.6991200416815,4.5692446911335,-1.63519198358059,-0.603717122375965,4.89043190674073
10.7091060415842,5.61025606870651,-2.11839477539062,-0.202637889683247,6.00030263363406
10.7190930417273,6.39151424646378,-2.75759718775749,0.242002222537994,6.96522517140622
10.7290800416376,6.9877080488205,-3.42597077429295,0.299273360967636,7.78812583786658
10.7390660415404,7.43998257815838,-3.83139448821545,-0.287672485113144,8.37351061062916
10.7490530416835,7.63240684390068,-4.00629464864731,-1.08388988703489,8.68785637138521
10.7590400415938,7.29355309545994,-4.1857655775547,-1.88613518357277,8.61823973658462
10.769027041737,6.58301874518395,-4.32973338246346,-2.20538964986801,8.18208228206039
10.7790130416397,5.45386526942253,-4.07812593877316,-1.86094771742821,7.0596659946848
10.78900004155,3.90550268411636,-3.56769090950489,-0.818143583536148,5.35263753346753
10.7989870416932,2.42715816736221,-2.81485897064209,0.810629619061947,3.80416195413627
10.8089740416035,1.7120460319519,-1.84479946196079,2.80426381587982,3.76806080357336
10.818960041739,1.22243001401424,-0.856738715171814,4.53621552407742,4.77551962053535
10.8289470416494,0.717044640183449,-0.0644357317686081,5.24593711137772,5.29510728466141
10.8389340415597,-0.222283072471619,0.346685509085655,4.67050794124603,4.68862933443876
10.8489200416952,-1.49125575363636,0.425984278321266,2.86585721611977,3.25859538932286
10.8589070416056,-2.61085078597069,0.292447321414947,1.52571982741356,3.03807311534291
10.8688940417487,-3.18474681615829,-0.126240801215172,1.32455397427082,3.45152028151052
10.878881041659,-3.13377780675888,-0.871432183384895,1.91213950574398,3.77309354267825
10.8888670415618,-2.55117819607258,-1.80334270298481,2.99873519182205,4.33046970237603
10.8988540417049,-2.07262452542782,-2.76222993671894,3.68994887977839,5.05385094577284
10.9088410416152,-2.43395146250725,-3.83836027622223,3.68665660500526,5.85222746098876
10.9188270417508,-3.12836386978626,-4.51178117930889,3.23243495285511,6.37114319696155
10.9288140416611,-3.62648232400417,-4.22813099384308,2.18804622352123,5.98464802838703
10.9388010415714,-3.9634199398756,-3.09357702970505,1.05549142241478,5.1374097170961
10.9487880417146,-3.95100220799446,-1.67747904717922,-0.0339691069722176,4.29249441485145
10.9587740416173,-3.58196103930473,-0.377534249424934,-0.924105948507786,3.71846054176367
10.9687610415276,-2.725957903862,0.745127062797546,-2.05989806056023,3.49703315014896
10.9787480416708,-1.94900269210339,1.61652942538261,-2.34818625748158,3.45336901833259
10.9887350415811,-1.60723995387554,2.16373759388924,-2.02152336895466,3.36920426447748
10.9987210417166,-0.783640333414078,2.45704504072666,-2.00280730873346,3.26533300296141
11.008708041627,0.575877651572228,2.85492584645748,-2.05844882816076,3.566433545786
11.0186950415373,1.38524281024933,3.04138302862644,-1.67938348531723,3.74021887874502
11.0286810416728,1.97786279439926,3.29476159393787,-1.73991386175156,4.21837592453211
11.0386680415832,2.11386142909527,3.54463826179504,-1.62186354786158,4.43433331136488
11.0486550417263,1.65011466264725,3.8185259360075,-1.49021787285805,4.41868397064454
11.0586420416366,0.638594886660576,4.0881813955307,-1.21217078179121,4.31165728650373
11.0686280415393,-1.09670201361179,4.36742044150829,-0.915665200352669,4.59516695874062
11.0786150416825,-2.60082924306393,4.79406370103359,-0.830461620390415,5.5169761667136
11.0886020415928,-3.6616205817461,5.12196853816509,-0.805117156505585,6.34745938358958
11.098589041736,-4.48640543282032,5.33910781502724,-0.616064102947712,7.00096000181871
11.1085750416387,-4.86070295602083,5.59260507881641,-0.692431955337524,7.4419840638801
11.118562041549,-4.98365674495697,5.61670554757118,-1.20538479566574,7.60507516499963
11.1285490416922,-4.96366277575493,5.39476863026619,-1.72928450077772,7.53205825854722
11.1385350415949,-5.14037732720375,5.01544162452221,-2.02132164001465,7.46082267095338
11.148522041738,-5.34418085932732,4.30772095441818,-2.05240748494864,7.16443335949237
11.1585090416484,-5.28977134823799,3.29538841545582,-1.84812038809061,6.5005241861127
11.1684960415587,-4.37600210756064,2.19850046038628,-1.72112237244844,5.19086321729213
11.1784820416942,-1.88807207375765,0.900946589112282,-2.52978147983551,3.28272984691938
11.1884690416046,1.96737230479717,-0.635792900919914,-3.66926464676857,4.21168487028277
11.1984560417477,5.55186401903629,-2.29930236518383,-3.73576649218798,7.07572870710602
11.208443041658,7.15372979700565,-3.77517701804638,-2.98612508654594,8.62234043393388
11.2184290415607,7.98274861693382,-4.81003887891769,-2.32821275353432,9.60631688648561
11.2284160417039,9.3725703817606,-5.63540494322777,-1.87563241481781,11.0959840208396
11.2384030416142,9.3286624699831,-6.0673861259222,-1.06649822115898,11.1792010598092
11.2483890417498,8.4338607198,-5.76146681964397,-0.368021999001503,10.2205648937127
11.2583760416601,8.34377032935619,-4.84668864190579,-0.175457984805107,9.65089009392684
11.2683630415704,7.9909089910984,-3.7185812330246,0.378777659833431,8.82190146205505
11.2783500417136,5.98258512675762,-2.13831565439701,0.985328050553799,6.42919823959014
11.2883360416163,3.30558011233807,-0.128512444496155,1.20613265454769,3.52109802587795
11.2983230417594,1.64583917856216,1.0173424333334,1.27801130712032,2.31885427085841
11.3083100416698,0.226694796681404,0.542104133963585,1.22890522062778,1.36215838439921
11.3182970415801,-1.92392515361309,-0.960808044075966,1.83636105269194,2.82787234685551
11.3282835832797,-4.42794380128384,-2.7616990095377,2.9578903439641,5.99856507954407
11.3382705834229,-5.69603004455566,-5.33134972929955,3.62278162121773,8.60189484239467
11.3482575833332,-3.12122705072165,-9.56242479622364,3.40197233945131,10.6186365454319
11.3582445832435,0.592535491883755,-10.8760737133026,2.49446225076914,11.1741854131228
11.368230583379,3.00409679621458,-4.25005279004574,1.27112270236015,5.35754600574346
11.3782175832894,2.26758414387703,2.78107726693153,0.689194644391537,3.65394552122276
11.3882045831997,-4.82388976335526,4.01938539505005,-0.294659323096275,6.28587269355917
11.3981905833352,-7.99527101397514,3.19737095475197,-0.873697687089443,8.65510758209441
11.4081775832456,-7.52334048449993,2.67836975455284,0.481681931018829,8.00039586961102
11.4181645833887,-6.37416965067387,1.89569888949394,1.12596001893282,6.74473861461181
11.428151583299,-4.8337584015727,0.789821425080299,2.03208753347397,5.30268025737842
11.4381375832018,-3.24477900981903,-0.546104798913002,3.9323191845417,5.12737315231422
11.4481245833449,-1.4778507193923,-1.90645601212978,5.74122083544731,6.22737777530547
11.4581115832552,-0.41178840816021,-3.14716910004616,6.32986763656139,7.08106399729361
11.4680985833984,-0.429277430176735,-3.16806237101555,5.12252226948738,6.0383054493871
11.4780845833011,-0.736719936132431,-1.98528934299946,3.21350459218025,3.84847265856025
11.4880715832114,-0.820952585935593,-0.70275930762291,1.47051275610924,1.82489494456118
11.4980585833546,-0.559024806618691,0.27274688243866,0.255972097814083,0.672622710852388
11.5080455832649,-0.0439470881223679,1.1819316136837,-0.796788382530212,1.42610147342835
11.5180315834004,0.931387778520584,1.80996116638184,-1.0662842130661,2.29791310558554
11.5280185833108,1.94111655235291,2.43731828927994,-1.14453282237053,3.31939893573526
11.5380055832211,2.22716351151466,2.8127808701992,-1.42858821988106,3.86171695399389
11.5479925833642,1.68960500299931,2.98022173762321,-1.76854943096638,3.85541875304534
11.557978583267,0.408254351019859,2.95894255042076,-2.36583403140306,3.81040461053181
11.5679655834101,-0.92146622300148,2.9255461782217,-2.69033432722092,4.07992882698503
11.5779525833204,-2.02679346442223,2.91221628069878,-2.70871007949114,4.46385547567667
11.5879385832232,-2.79184432983398,2.92168701589108,-2.74029761552811,4.88261003998084
11.5979255833663,-3.14522431612015,2.96353319942951,-2.75972966730595,5.12748211693059
11.6079125832766,-3.37840718328953,2.86122329771519,-2.67508888185024,5.17265254789931
11.6178995834198,-3.59553476572037,2.58701578080654,-2.45133114159107,5.06256311243426
11.6278855833225,-3.7450989407301,2.21996325016022,-2.25595373958349,4.90339985959338
11.6378725832328,-3.86865645468235,2.01503471374512,-2.04098261028528,4.81585689960159
11.647859583376,-3.87534625411034,1.99314390778542,-1.68927814364433,4.67381983745454
11.6578465832863,-3.7239179867506,2.16684480428696,-1.39683140695095,4.52922946618458
11.6678325834218,-3.46551432430744,2.4839170897007,-1.21111711353064,4.43243029309814
11.6778195833322,-3.11697349369526,2.8031183463335,-1.03140527933836,4.31703521808629
11.6878065832425,-2.62299077510834,2.95684106111527,-0.885924507379532,4.0506606744797
11.6977935833856,-2.03455915153027,2.91414644658566,-0.715567633509636,3.62542652543807
11.7077795832884,-1.45656539261341,2.6303506654501,-0.555879589319229,3.05766732723077
11.7177665831987,-0.848727445006371,2.29209450244904,-0.376696928143501,2.47304186372509
11.7277535833418,-0.0365696561336517,1.90306345760822,-0.224567579627037,1.91661640952305
11.7377395832445,0.843561429977417,1.47359248459339,-0.263174990415573,1.71823507482996
11.7477265833877,1.68718542516232,0.781194443106651,-0.284757355749607,1.88094289346444
11.757713583298,2.63486588537693,-0.0721359300613403,-0.292294416725636,2.65201015314383
11.7677005832084,3.70693007111549,-1.01194720745087,-0.060724503993988,3.84305284483485
11.7776865833439,4.82610351920128,-1.81620423853397,0.345240077376366,5.16808124211903
11.7876735832542,5.87057937204838,-2.49382402718067,0.57609750688076,6.40427582006723
11.7976605833974,6.76112434923649,-3.0785280507803,0.416055121421814,7.44064777350339
11.8076475833077,7.34880986809731,-3.6329779958725,-0.299980289340019,8.20326299529222
11.8176335832104,7.69054804801941,-3.90839881002903,-1.40831299960613,8.74090704915635
11.8276205833536,7.71589982092381,-3.81083626270294,-2.44369877099991,8.94590670368578
11.8376075832639,7.27393685638905,-3.86692333996296,-2.77871265292168,8.6939345244482
11.847594583407,6.42023635447025,-3.96409880161285,-2.40437858462334,7.91925189234471
11.8575805833098,5.31464072585106,-3.84419404327869,-1.5254988026619,6.73426911284194
11.8675675832201,3.82098469018936,-3.49367860794067,-0.436542010903358,5.1957947559086
11.8775545833632,2.31675630390644,-3.16070715844631,1.00296208351851,4.0451653185154
11.8875405832659,1.67158973157406,-2.68394682884216,3.0711857020855,4.40794333305796
11.8975275834091,1.66019584715366,-1.96968955636024,4.99540614008904,5.6204990618076
11.9075145833194,1.18670235693455,-1.3496367752552,5.71949901401997,5.99520232189462
11.9175015832298,-0.0541621738672257,-0.908508793115616,4.62913362801075,4.71775369367948
11.9274875833653,-1.38908910870552,-0.555115942955017,2.73487958550453,3.11725658380195
11.9374745832756,-2.380169942379,-0.453225871324539,1.7175646340847,2.96995806658964
11.9474615834188,-2.66730506837368,-0.761678191423416,1.68470152795315,3.24544130024711
11.9574485833291,-2.05116933703423,-1.37743268430233,2.70903313815594,3.66653473904186
11.9674345832318,-1.18329050660133,-2.3573014819622,4.03275329947472,4.81872865746747
11.977421583375,-1.1239716732502,-3.49589821100235,4.79451189011335,6.03920200758317
11.9874085832853,-2.05722529828548,-4.38354238450527,4.8571417093277,6.85853084480567
11.9973955831956,-2.89019157350063,-4.4393382704258,4.35893291562796,6.86011864137538
12.0073815833312,-3.19092966198921,-3.6413500392437,3.11190074175596,5.75546596224875
12.0173685832415,-3.36791844785213,-2.55323173820972,1.54207039654255,4.49887186839958
12.0273555833846,-3.51367725491524,-1.43039091646671,0.30728580057621,3.80609650283002
12.0373415832873,-3.62195014715195,-0.449828639030457,-0.803385211229324,3.7371508493193
12.0473285831977,-3.35257359981537,0.405640645623207,-1.9368632876873,3.89303653601549
12.0573155833408,-2.61095252752304,1.29449460804462,-2.88259604036808,4.09904248857966
12.0673025832512,-2.16754120767117,2.10328615486622,-2.75126816153526,4.08552616352926
12.0772885833867,-1.67299540221691,2.74005904912949,-2.39259966105223,4.00391937314209
12.087275583297,-0.696340819001198,3.1991707277298,-2.26805806070566,3.98292245067644
12.0972625832073,0.0903260332345963,3.4795032030344,-1.97516664326191,4.00204755104947
12.1072495833505,0.546197769641876,3.62739799797535,-1.58079007387161,3.99440176959308
12.1172355832532,0.778125824332237,3.86592288136482,-1.45454371780157,4.20315797349431
12.1272225833964,0.469667072296143,3.98501078367233,-1.26498488008976,4.20726572153931
12.1372095833067,0.0416427004337311,4.31687710940838,-1.29762374550104,4.5078808188684
12.1471955832094,-0.748144810795784,4.63309102356434,-1.16130117505789,4.83465340120095
12.1571825833526,-1.99891043186188,4.94642927706242,-0.86294261097908,5.40439408790938
12.1671695832629,-3.1934585827589,5.27552870035172,-0.789747750163078,6.21716030812451
12.177156583406,-4.22959338247776,5.4896186542511,-0.826068022549153,6.97909460661479
12.1871425833087,-4.80633349835873,5.69141191363335,-0.936827735602856,7.50803952269084
12.1971295832191,-5.10790539979935,5.79059764802456,-1.28991623818874,7.82851215724609
12.2071165833622,-5.12491728901863,5.67656583309174,-1.64399905979633,7.82246187496735
12.2171035832725,-5.12526461362839,5.1625382745266,-1.82895643115044,7.50101462621624
12.2270895834081,-5.17697797358036,4.40200613737106,-1.81796161919832,7.03446824012071
12.2370765833184,-5.14670050621033,3.35187427282333,-1.61877563327551,6.35169440325392
12.2470635832287,-4.59602055341005,2.11768550813198,-1.45977639108896,5.26677737812228
12.2570495833643,-2.74584223777056,0.651131901741028,-2.04547297954559,3.48533815550813
12.2670365832746,0.791677916049957,-0.896654148101807,-3.14449165999889,3.36430830689935
12.2770235834178,5.3520248991251,-2.29712193846703,-3.86546036660671,6.99018766320682
12.2870105833281,6.99584678828716,-3.7111260330677,-3.50852264195681,8.66164302240771
12.2969965832308,6.9677620267868,-4.47744223594666,-2.79055443406105,8.73981639896565
12.306983583374,7.66543016374111,-5.010353962183,-2.42062214970589,9.47216332276855
12.3169705832843,8.26172629237175,-5.45605095863342,-1.78978593349457,10.0612100207185
12.3269578332547,8.08477609813213,-5.34622563064098,-1.07510736912489,9.75200435324953
12.3369438333903,7.99041548609734,-4.75639301419258,-0.577758408486843,9.31685670838086
12.3469308333006,8.02838438093662,-4.01578175604343,-0.010790744125843,8.97672408623531
12.3569178332109,7.14436138808727,-2.70743392467499,0.508843417167664,7.65708950733033
12.3669048333541,4.89026969432831,-1.04270356178284,0.897347335517406,5.08007880269398
12.3768908332568,2.16818147778511,0.11781847178936,0.667566086053848,2.27168144601184
12.3868778333999,0.332961509227753,0.285655780434608,-0.16200763463974,0.46766341016215
12.3968648333102,-1.15822232365608,-0.363402698636055,-0.00956048995256424,1.21393240147852
12.406850833213,-2.81083082377911,-1.63138486146927,1.04262813270092,3.41310121579147
12.4168378333561,-3.72108618021011,-3.34611651957035,1.8983175650239,5.35225071355692
12.4268248332664,-2.94415494203568,-5.94237733304501,2.08536999374628,6.95188209780758
12.4368118334096,0.544924830794334,-9.01475118935108,2.27032853454351,9.31220026266003
12.4467978333123,3.12321013391018,-9.47303314805031,3.50997889101505,10.5741548305286
12.4567848332226,3.32666897267103,-2.99623316824436,3.66661001086235,5.78689628591837
12.4667718333658,0.69896680355072,3.21783971786499,1.86922357410193,3.7864288996776
12.4767588332761,-6.28003824949265,3.50917431414127,0.769167597591877,7.23497087591269
12.4867448334117,-7.96791598498821,2.6369644510746,0.679090363383293,8.42035809106132
12.496731833322,-6.16257470369339,2.22134611666203,1.39708429902792,6.69802583506525
12.5067188332323,-4.3367772307992,1.52182090401649,2.72645959496498,5.34388973842617
12.5167048333678,-2.85230892509222,0.0941536206007004,4.71105487346649,5.50804585395268
12.5266918332782,-1.95896342396736,-1.49554936408997,6.58202062547207,7.02831424390028
12.5366788334213,-1.6963199454546,-2.55108230173588,7.16486698865891,7.79235787376012
12.5466658333316,-2.28475507736206,-2.85215485095978,6.22754019320011,7.22060592438806
12.5566518332344,-3.06307736814022,-2.21660285532475,4.14643340438604,5.6114776270119
12.5666388333775,-2.62426429867744,-0.908041015863419,2.00939624369144,3.42767776489631
12.5766258332878,-1.95182221949101,0.0601058685779572,0.218794038891792,1.96496654510729
12.5866128331982,-1.19806758999825,0.907705385684967,-1.13636923223734,1.8843115584694
12.5965988333337,-0.215573392510414,1.56764085531235,-1.87112625807524,2.45052712950939
12.606585833244,0.512245327234268,2.16057717382908,-1.55159054070711,2.70885994568866
12.6165728333872,0.813281623721123,2.54009129047394,-1.48416600465775,3.05225154481176
12.6265588332899,1.03309600174427,2.7945849198103,-1.90034040927887,3.53387689287407
12.6365458332002,1.02230671942234,3.04563687801361,-2.57145604759455,4.11502141258137
12.6465328333434,0.137633516192436,3.0968082010746,-3.26305535942316,4.50074374939105
12.6565198332537,-1.21174890518188,3.04770620763302,-3.51500603467226,4.80750621019222
12.6665058333892,-2.17208040118217,3.05657701849937,-3.57348666965961,5.1798072664389
12.6764928332996,-2.75394501686096,3.06037829339504,-3.57969348907471,5.45566988831809
12.6864798332099,-3.19289900422096,3.05390074789524,-3.34530375659466,5.5418382377183
12.696466833353,-3.44834748387337,2.92361016511917,-2.98488138377666,5.41738992895476
12.7064528332558,-3.69027310788631,2.64197434544563,-2.64745026290417,5.25424941807421
12.7164398333989,-3.87586314797401,2.39338172614574,-2.32584170758724,5.11469753530194
12.7264268333092,-3.81878438293934,2.30495369911194,-2.0725508505106,4.91847463614314
12.7364128332119,-3.49300793230534,2.45444361448288,-1.81726609289646,4.63981184146674
12.7463998333551,-3.00414620518684,2.75797140955925,-1.65160014778376,4.39989588129584
12.7563868332654,-2.30063260674477,3.00320948123932,-1.36817010998726,4.02294258339409
12.7663738334086,-1.55591426432133,3.06949878036976,-1.05236491620541,3.59863361256325
12.7763598333113,-0.862483019828796,2.90275197744369,-0.662292189896107,3.09975433653115
12.7863468332216,-0.0594808012247086,2.63779943346977,-0.217678390145302,2.64743417264038
12.7963338333648,0.676270835995674,2.34423821747303,0.430847407579422,2.47758441884375
12.8063198332675,1.28500516176224,1.8656874704361,1.01041640639305,2.48051795345369
12.8163068334106,1.91982040822506,1.20154726803303,0.935025916099548,2.4502448246926
12.826293833321,2.5520324742794,0.405842374563217,0.738186417818069,2.68747036638897
12.8362808332313,3.27637736320496,-0.40696270108223,0.341624159216881,3.31918278079931
12.8462668333668,4.01818028390408,-1.20481469213963,-0.000704004764556885,4.19491975274541
12.8562538332772,4.77093620896339,-2.03755117177963,-0.247766407728195,5.19373038195256
12.8662408334203,5.49604649841785,-2.82195807516575,-0.353217433691025,6.1882741573259
12.876226833323,6.39812393903732,-3.54748994886875,-0.558948208093643,7.33710419552144
12.8862138332333,7.11762265563011,-4.03097983896732,-1.06956274688244,8.24944332665052
12.8962008333765,7.41245154798031,-4.1015925693512,-1.95468267738819,8.69415228331055
12.9061878332868,7.31586490094662,-4.0280679255724,-2.74142261981964,8.78991515558521
12.9161738334224,6.9387341094017,-4.05198830008507,-2.83665739059448,8.52122440595336
12.9261608333327,5.95586335122585,-4.08337556898594,-2.52687512129545,7.65057920516404
12.936147833243,4.48324033498764,-3.82420533657074,-1.7472991874814,6.14630334494559
12.9461338333786,2.8109571236372,-3.12494792640209,-0.270148379802704,4.2118594042016
12.9561208332889,1.63393366277218,-2.0796710050106,1.38122401893139,2.98371421116281
12.9661078331992,0.585802715420723,-1.06352023422718,3.17317049860954,3.39753603707906
12.9760948333424,-0.359261700510979,0.0964439749717712,5.18437411665917,5.19770193366721
12.9860808332451,-1.31460552155972,0.933412669301033,6.3386098086834,6.54044503036791
12.9960678333882,-2.06446824431419,1.14065436422825,5.80213537395001,6.26321773596102
13.0060548332985,-2.71345421791077,0.890453760623932,3.95921462237835,4.88171303115634
13.0160408332013,-3.01640138447285,0.39669615983963,2.75429818868637,4.10392539743137
13.0260278333444,-2.82252467036247,-0.49732147872448,2.93391617506742,4.10144343985477
13.0360148332547,-2.08345532298088,-1.79100040018559,3.82166062831879,4.70675668314862
13.0460018333979,-1.43175273299217,-3.22531830668449,4.63771792531014,5.82760856806698
13.0559878333006,-1.21762477219105,-4.55207785069943,5.14501592338085,6.97676226458406
13.0659748332109,-1.62841856896877,-5.15993275523186,4.95588948726654,7.33740374276051
13.0759618333541,-2.2900661033392,-4.64973980069161,4.02148659199476,6.56024674698997
13.0859478332568,-2.83603056907654,-3.25391294538975,2.47256296634674,4.97439307528677
13.0959348334,-3.00379595696926,-1.58732609152794,0.782882534265518,3.48644508552885
13.1059218333103,-2.53492878377438,-0.239697834849358,-1.25790741026402,2.8400088104857
13.1159088332206,-2.13746488451958,0.648190752267838,-2.45579373657703,3.31961296847853
13.1258948333561,-1.8845581895113,1.25130005657673,-3.10632454454899,3.84272866298292
13.1358818332665,-1.1503513866663,1.63095216751099,-3.72560783207417,4.22651949054139
13.1458688334096,-0.103586933612824,2.06346076905727,-4.14905354171991,4.63500225353908
13.1558548333123,0.654555446505547,2.37601549565792,-3.70415147423744,4.44911571126803
13.1658418332227,1.21931110918522,2.65031247496605,-2.96013187408447,4.15611074298003
13.1758288333658,1.24036927163601,3.24134435534477,-2.11947680264711,4.06657239907314
13.1858158332761,0.755418162345886,3.8896900588274,-1.44267796307802,4.21683116319514
13.1958018334117,0.0263083773851395,4.31267354607582,-1.21781831502914,4.48139785046622
13.205788833322,-0.8345099401474,4.70035271465778,-1.19492821991444,4.92113563449978
13.2157758332323,-1.59296456158161,5.2129892206192,-1.1840985918045,5.57807154703669
13.2257618333679,-2.37529277980328,5.71433299899101,-1.22300245642662,6.30803871433655
13.2357488332782,-3.35315656721592,5.97848096609116,-1.20309911906719,6.95940666411137
13.2457358334214,-4.19914400696755,6.11062219262123,-1.24631881356239,7.5183658169343
13.2557228333317,-4.70489892482758,6.02838344335556,-1.52703077316284,7.79803204758441
13.2657088332344,-4.72118400514126,5.55595122277737,-2.08889557242393,7.58430333733925
13.2756958333775,-4.53663827776909,4.85019755601883,-2.51630130887032,7.10192054818647
13.2856828332879,-4.65681317746639,3.98714092433453,-2.58164949864149,6.65192572524406
13.2956688334234,-4.66166139632464,2.86336454808712,-2.33433946609497,5.94803196462444
13.3056558333337,-4.64507109135389,1.55203054368496,-1.98081359177828,5.28290703473346
13.3156428332441,-4.55046548098326,0.280805515050888,-1.67693467140198,4.85774615671231
13.3256288333796,-3.69893605023623,-0.879902459979057,-1.60582492768765,4.12735144386777
13.3356152083725,-1.65944506466389,-2.02632802605629,-2.14986215114593,3.38846137070328
13.3456022082828,1.77227264553309,-3.15145160079002,-2.70945413768291,4.51815662039663
13.355589208426,5.45178073704243,-4.53160031676292,-2.89352419406176,7.65700965764661
13.3655752083287,8.64830910801888,-5.87903386116028,-2.85098891615868,10.8390233586136
13.375562208239,10.9385453653336,-6.61542635321617,-2.06442731380463,12.9490347392487
13.3855492083821,11.2912868356705,-5.72238403022289,-0.961938310861587,12.6950448092411
13.3955352082849,10.5297548246384,-3.90807662844658,-0.33856255710125,11.2366998805644
13.4055222081952,9.5797886878252,-2.29770373642445,0.187637150287628,9.85327364198979
13.4155092083383,8.20784946262837,-0.599336096048355,0.934072819948196,8.28254119157648
13.4254962082487,6.39297020316124,1.13292843818665,1.22088517963886,6.60637233937214
13.4354822083842,4.43200176894665,2.35763477325439,1.05436174035072,5.12959648349848
13.4454692082945,2.28259277701378,1.88552824258804,0.913406420946121,3.09834759655824
13.4554562082049,-0.90805563390255,-1.34031514406204,2.14812348157167,2.68987810351024
13.4654422083404,-3.40568502902985,-4.80811456024647,4.31057088732719,7.30052583832732
13.4754292082507,-3.85685852766037,-7.51335928738117,5.94021444797516,10.325312255404
13.4854162083939,-1.38265337079763,-10.1084184980392,5.3992370724678,11.5431198486367
13.4954022082966,0.709036585986614,-8.99122901022434,3.71784857690334,9.75537441799901
13.5053892082069,2.12694106578827,-1.2585470956564,2.40040130853653,3.44524970522393
13.5153762083501,1.31302618861198,4.8477382171154,1.84363060355186,5.35010069026884
13.5253632082604,-6.2667726713419,4.66852339625359,-0.0865563333034515,7.81505229761642
13.5353492083959,-8.11439283013344,3.37888431608677,-1.18531773626804,8.8693409202223
13.5453362083063,-6.65940092325211,2.42502451837063,0.336684431433678,7.09518998883607
13.5553232082166,-5.04861931085587,1.11618669033051,2.67429658412933,5.82119333929939
13.5653092083521,-3.51829158514738,-0.802348499894142,5.35417024254799,6.45672345540582
13.5752962082624,-1.93916358232498,-2.59042119920254,7.45704826176167,8.12885023644402
13.5852832084056,-1.0711414951086,-3.53711640357971,8.07438501119614,8.87999042026764
13.5952692083083,-1.71916852533817,-3.4162164491415,6.95618337035179,7.93817122061859
13.6052562082186,-2.63133358240128,-2.3077404820919,4.50071064591408,5.7014014832147
13.6152432083618,-2.72208236932755,-0.739613723158836,1.85551740825176,3.37634502638787
13.6252302082721,-2.02789858818054,0.637513736486435,-0.0225740531086922,2.12586594968434
13.6352162084077,-0.582479742765427,1.61024074494839,-0.769839735031128,1.87744803524806
13.645203208318,1.09487417399883,2.32143349170685,-0.260696940422058,2.57987709165636
13.6551902082283,1.90254247069359,2.69213293075562,-0.355279454290867,3.31564036956557
13.6651762083638,1.2152548956871,2.42216113686562,-0.753617512285709,2.81276525669266
13.6751632082742,0.540418966412544,2.04108581364155,-1.88781011849642,2.83229783063234
13.6851502084173,-0.148449110984802,1.66121560156345,-2.88880052089691,3.33569226143004
13.69513620832,-1.07677528738976,1.6933133071661,-3.39386429786682,3.94272365860126
13.7051232082304,-2.1171955114603,1.75888632237911,-3.31820892870426,4.3112304999075
13.7151102083735,-2.844404951334,1.86657215416431,-3.10923528850079,4.60891258467044
13.7250972082838,-3.41430967211723,2.11464612543583,-2.72545533567667,4.85359099633483
13.7350832084194,-3.94004043281078,2.33457569360733,-2.41993977963924,5.1797944764678
13.7450702083297,-4.06519774496555,2.44441213130951,-2.29888078093529,5.27122720230496
13.75505720824,-4.10930212318897,2.48071223080158,-2.24890842944384,5.30074393229078
13.7650432083756,-4.29102013707161,2.45262980818748,-2.08122080951929,5.3628096041851
13.7750302082859,-4.3968050390482,2.52333141624928,-1.78451262205839,5.37434473084076
13.7850172081962,-4.32709044098854,2.73642909765244,-1.58743601918221,5.36019673202117
13.7950032083318,-4.12888327896595,2.97734549224377,-1.50311566114426,5.30769441493065
