Time (s),Linear Acceleration x (m/s^2),Linear Acceleration y (m/s^2),Linear Acceleration z (m/s^2),Absolute acceleration (m/s^2)
0.0149153333350114,-0.164916332066059,0.0468560779094696,-0.457609528899193,0.488671023858098
0.0249033333348052,-0.0349143093824387,-0.431918909847736,0.693244133591652,0.817533107857382
0.0348903333342605,-0.0133766752481461,-0.722176010459661,1.00989951252937,1.24161755421353
0.0448783333340543,-0.47119144141674,-0.939445241689682,0.590067089796066,1.20530407244735
0.0548653333335096,-0.956566181480885,-1.13615273907781,0.101505909562111,1.48867906405073
0.0648533333333035,-1.03364885598421,-1.36387474536896,-0.0341103172302246,1.71165060461364
0.0748403333345777,-0.994637402594089,-1.57956522837281,-0.331663427352905,1.89587196360067
0.0848283333343716,-1.17526374131441,-1.76167325153947,-1.1208404892683,2.39604276030734
0.0948163333341654,-1.31601586997509,-1.73730117961764,-2.03408903539181,2.98121306897516
0.104803333333621,-1.34704616636038,-1.41713250115514,-2.48848318040371,3.16470321504064
0.114791333333415,-1.00021710813046,-1.04786241397262,-2.18812106788158,2.62418057871798
0.124778333334689,-0.416181421279907,-1.29511631324887,-1.84636534631252,2.29338139704797
0.134766333334483,0.0875947988033295,-1.87102729395032,-1.49457755684853,2.39628421872694
0.144753333333938,0.434119509458542,-2.42562444269657,-1.10029161930084,2.69865806151933
0.154741333333732,0.317522228658199,-3.00039697051048,-1.60898651719093,3.41936250766759
0.164728333335006,-0.374212738573551,-3.50804170846939,-2.53385406553745,4.34359392985949
0.1747163333348,-1.61689516872168,-3.80922974020243,-3.40148438930511,5.35674129027756
0.184703333334255,-1.96430397838354,-3.51091503024101,-4.20283710837364,5.8179768157486
0.194691333334049,-1.66582233041525,-2.96243450760841,-3.64446309685707,4.98328140011501
0.204678333333504,-0.975058878064156,-2.86362182557583,-2.63549095273018,4.01209201508747
0.214666333333298,-0.462730520367622,-2.84238269180059,-1.82272212982178,3.40816297492789
0.224653333334572,-0.545532648861408,-2.74362672775984,-1.1535059595108,3.02583368526409
0.234641333334366,-0.991664678156376,-2.55720404416323,-0.786584406495094,2.85331498189895
0.244628333333821,-1.1667522418499,-2.32785388067365,-0.760507578849792,2.71267142520378
0.254616333333615,-1.00787111341953,-2.21327578961849,-1.27464564979076,2.74574496898518
0.26460333333489,-0.956173540949822,-2.43423534482718,-2.02201161146164,3.30579801429308
0.274591333334683,-1.23026937603951,-2.78777086704969,-2.5825192719698,3.99432534164245
0.284578333334139,-1.44771446228027,-3.15166093111038,-2.98829206466675,4.57807090953529
0.294566333333933,-1.47451400578022,-3.49215657770634,-3.1008024340868,4.89737938613074
0.304553333333388,-0.499067457318306,-4.04694098353386,-3.4710335111618,5.35489246267079
0.314541333335001,-0.767256435155869,-5.20915286242962,-5.44848056852818,7.57693186501475
0.324528333334456,-3.01665047585964,-5.46061646461487,-2.33033529281616,6.65950259734703
0.33451633333425,-4.14621851921082,-7.79955067276955,-0.0612636172771454,8.83333866309611
0.344503333333705,-5.23089982688427,-10.2427407360077,-1.71840020120144,11.6287983057347
0.354491333333499,-8.23143771529198,-11.2820037961006,-3.7697472935915,14.465516623111
0.364478333334773,-8.18969619691372,-12.6092024660111,-2.24649733006954,15.2022978815905
0.374466333334567,-5.12258483469486,-13.0849763703346,0.618044262528419,14.0655416074642
0.384453333334022,-2.48401532292366,-12.6703549861908,4.50673386275768,13.6754845512083
0.394441333333816,0.16150945186615,-11.9884269690514,7.25744069159031,14.0149531532314
0.404428333333271,3.72697724997997,-9.91403249144554,9.22011943638325,14.0424001539793
0.414416333334884,6.11032983183861,-6.81706407666206,9.73113334000111,13.3605183043194
0.42440333333434,6.88694005787373,-4.43382551550865,8.39078486680985,11.7257845257282
0.434391333334133,8.66713714241982,-2.82512141883373,6.81967719733715,11.3845761604263
0.444378333333589,10.8453629672527,-1.24072887539864,6.50367144405842,12.7066537013474
0.454366333333383,13.1906320488453,0.598723307847977,7.90156762897968,15.3878528210639
0.464353333334657,14.1740927910805,2.24644178152084,8.74098630666733,16.8034594277865
0.474341333334451,15.1728627133369,4.23642468452454,7.48603115558624,17.4414368527317
0.484328333333906,15.2772974932194,5.62342867612839,7.30576091229916,17.8435677844849
0.4943163333337,14.9729440712929,6.44247623920441,6.74841659545899,17.6418729391367
0.504303333334974,14.9888274478912,7.19006205618382,6.01596629619598,17.6791909065827
0.514291333334768,14.3794423270226,7.58075487971306,4.99030502915382,17.0040980491898
0.524278333334223,13.6972850990295,7.6503940486908,3.14353856384754,16.0008119446088
0.534266333334017,12.4236293828487,7.64185477495194,0.815141038298607,14.6085237569084
0.544253333333472,10.7919112300873,7.38021467864513,-0.977419983744621,13.1106165577976
0.554241333333266,9.12898414850235,7.01130331814289,-2.10001463770866,11.7007173831864
0.56422833333454,7.86682288885117,6.43975377559662,-2.43744108080864,10.4545899047871
0.574216333334334,6.41456280112267,6.02239121675491,-2.51638726294041,9.15139425193135
0.584204333334128,5.01761795818806,5.9602353143692,-2.99265642642975,8.34607018084777
0.594191333333583,4.50374125778675,5.58502299427986,-3.18546543896198,7.8500546002271
0.604179333333377,4.64395661205053,5.64954701900482,-3.08915887355804,7.93893047460655
0.614166333334651,4.48767369389534,5.94331931948662,-4.2119821536541,8.55587829383774
0.624154333334445,4.17695119231939,5.61435204327107,-6.74070587217808,9.7162228146547
0.634141333333901,4.10357243657112,4.03749363720417,-10.3973282539845,11.8846580276318
0.644129500000417,2.23930408537388,1.05972305238247,-11.2078236794472,11.4783625732985
0.654116500001692,-0.826507440805435,-1.06308403193951,-6.63349424958229,6.76878926898399
0.664104500001486,-2.21050888717175,-2.43084951460361,-3.88735058784485,5.0898795168188
0.674091500000941,-2.33068232506514,-2.97199704408646,-3.4556085562706,5.11918714490887
0.684079500000735,-1.84488190770149,-2.5266690069437,-3.6239598351717,4.78755996421474
0.69406650000019,-1.33438109725714,-2.77383432090282,-4.27560161411762,5.26834878450362
0.704054499999984,-0.995376198291778,-3.91602708756924,-3.72559847652912,5.49601000135716
0.714041500001258,-0.792793564796448,-4.10276493608952,-3.24300262570381,5.28944872245777
0.724029500001052,-0.383770889639854,-2.68241193473339,-3.3365726941824,4.2982939902825
0.734016500000507,-0.00308119028806686,-1.03391285777092,-3.32107932686806,3.47829745515648
0.744004500000301,0.00262393802404404,-0.497780485153198,-2.6663239055872,2.71239294092059
0.753991500001575,-0.658743807077408,-0.591870371103287,-2.67122796535492,2.81419842627469
0.763979500001369,-1.52939392536879,-1.07838502585888,-3.25858077764511,3.75769992513902
0.773966500000824,-1.87532572835684,0.625637456774712,-2.43522147774696,3.13664987852274
0.783954500000618,-2.22551664322615,1.38929200708866,-1.60503087580204,3.07557811191894
0.793941500000074,-1.74146425098181,-0.106457331776619,0.54932544529438,1.82914989702443
0.803929500001686,-3.54725547552109,-3.65351751029491,2.60550233781338,5.72012709989882
0.813916500001142,2.4348203587532,-1.02534200906754,1.01205888926983,2.82912347031864
0.823904500000936,3.54457452714443,5.55131145715714,1.02695876419544,6.66601168437343
0.833891500000391,2.6716355162859,4.92499455392361,0.240174382925034,5.60810943387081
0.843879500000185,1.74434429705143,2.65001777529717,-0.479555883407593,3.20862978253298
0.853866500001459,1.94287831842899,1.02194477677345,0.361314657926559,2.22479112930374
0.863854500001253,1.02458187103271,0.106967793703079,0.239945172071457,1.05772577019708
0.873841500000708,0.0880333399772644,-0.270534296035767,-1.07084971904755,1.10799719993479
0.883829500000502,-0.0661577367782593,-0.136709071397781,-3.10069075226784,3.10440805267886
0.893816499999957,0.290583521425724,-0.524668321609497,-3.49079417645931,3.54194291498705
0.90380450000157,0.0412483057379723,-1.02296511590481,-2.28314241528511,2.50217871854876
0.913791500001025,-0.57745376855135,-1.71518774092197,-0.622412717342377,1.91382324997182
0.923779500000819,0.160193535983562,-2.23882110536098,0.982791236042976,2.45027764231394
0.933766500000274,1.09938354671001,-2.081444465518,2.10593318939209,3.15848220574303
0.943754500000068,1.42448113560677,-2.15020187437534,2.40051415979862,3.52349015007286
0.953741500001343,1.8115887388587,-1.41766386687756,2.11392516374588,3.1241485553872
0.963729500001136,2.07077095806599,-0.719586424827576,1.96785528481007,2.94590417453124
0.973716500000592,1.79872018665075,0.296866647005081,0.739253534674644,1.96723661629655
0.983704500000385,1.54426105588675,1.12250753045082,-1.22565124511719,2.26869705763122
0.99369150000166,1.69984230816364,2.25305498242378,-2.12359119594097,3.53204759225095
1.00367950000145,3.21195420295,5.69041145503521,-4.92441392540932,8.18213204722396
1.01366650000091,3.58713845640421,3.31049001932144,-1.09691134393215,5.00301119026211
1.0236545000007,0.793328000307083,-0.349544797539711,5.18185513615608,5.25387224184843
1.03364150000016,-2.26581272989511,0.339090560674667,1.909827516675,2.98267176852271
1.04362949999995,0.882817589342594,2.80767858982086,-0.685709411501884,3.02202305696257
1.05361650000123,2.75547640264034,1.69194739758968,4.8855436822772,5.85865797543746
1.06360450000102,3.98512714326382,5.06531486570835,3.53319409132004,7.34997370904705
1.07359150000048,6.95050513923168,6.79942887425423,1.70445839256048,9.87152131732987
1.08357950000027,6.08475177168846,5.85657353639603,-0.856021846532822,8.48860595810771
1.09356650000154,3.9787305817008,3.08427527904511,-0.717590185403824,5.08507489746984
1.10355450000134,2.08579625576735,1.52255765318871,-1.7203087323904,3.10293247793039
1.11354150000079,1.80204082041979,1.22553722441196,-0.933991251289845,2.37099815781552
1.12352950000059,2.78654148995876,1.77482290863991,-1.08464081570506,3.47724827002444
1.13351650000004,-3.53746021986008,-5.9371382278204,2.68345449328423,7.4137819741928
1.14350450000165,-7.53808774709702,-10.0314539372921,1.74079167500138,12.6681960292183
1.15349150000111,-5.421526658535,-6.64384791433811,-0.09672412969172,8.575722825239
1.1634795000009,-3.05993945986032,-4.80145867466927,-0.115490110516548,5.69478470780013
1.1734675000007,-1.68263570666313,-4.69834478080273,0.323718230724335,5.00104989912491
1.18345450000015,-1.91362294435501,-5.97871310055256,2.159814696908,6.63865668918498
1.19344249999995,-2.90297884941101,-6.30236993551254,1.91537184655666,7.19831940905389
1.20342950000122,-1.62282541483641,-5.02171276330948,0.683344212770462,5.32147730591338
1.21341750000101,-0.541134080886841,-3.10140060424805,-0.637338320016861,3.21211953944577
1.22340450000047,-0.773157152831555,-1.58260680377483,-0.796922868490219,1.93326209724695
1.23339250000026,-3.47175505757332,-0.565077844262123,-0.620758540034294,3.57179749074431
1.24337950000154,-5.66993976831436,0.794334890842438,-0.868876950144768,5.79086626072605
1.25336750000133,-4.41318455189467,0.958928164243698,-0.755405883193016,4.57890589132646
1.26335450000079,1.15727946013212,-1.28563432216644,2.62708265662193,3.14542757727782
1.27334250000058,1.39071843534708,-1.19272381961346,2.38168378651142,3.00484700695708
1.28332950000004,-3.4337598502636,-0.193476179838181,0.994745868444443,3.58017584543474
1.29331750000165,-3.74923409163952,0.867355504631996,1.65185128569603,4.18780067760908
1.3033045000011,-2.70804992884397,2.07117090761662,0.342698329277337,3.42647420690114
1.3132925000009,-2.17306097924709,2.97452596485615,-2.25475184440613,4.31901662592106
1.32327950000035,-1.10489045441151,2.70040674090385,-3.7800962805748,4.77515521977915
1.33326750000015,-0.123644345104694,0.345613714456558,0.908271469250321,0.97963964065924
1.34325450000142,-0.876141530871391,-2.83313912093639,1.76441369533539,3.45071832362263
1.35324250000122,-1.19055040955544,-4.12983403623104,1.02668467596173,4.41893888488624
1.36322950000067,0.0917735114693642,-3.28705847203732,-0.471463190764189,3.32196527920526
1.37321750000046,2.33802818208933,-1.17686324715614,-2.51840747594833,3.63232144745799
1.38320449999992,3.7030568754673,1.81734210669994,-3.14554240465164,5.18746562159132
1.39319250000153,3.84386542975903,4.11474471151829,-2.67619108200073,6.23445460248485
1.40317950000099,4.24973177790642,5.36676222145557,-2.16951464295387,7.18116638936752
1.41316750000078,4.08025110930204,5.48947598218918,-1.80742581367493,7.07457304336671
1.42315450000024,3.58859441310167,5.13795774936676,-1.68267546772957,6.48906899529674
1.43314250000003,3.1422033521533,5.0984557145834,-1.90031000375748,6.28322136250445
1.44312950000131,2.91685312271118,5.73753942847252,-1.98444792866707,6.73538598851898
1.4531175000011,2.9575067666173,5.63680008888245,0.734143579825759,6.4077553255732
1.46310450000055,3.08829933285713,3.5461819267273,4.6695057284832,6.62701160215602
1.47309250000035,2.36286627709866,4.32843003809452,1.87668842196465,5.27640057911311
1.48308050000014,1.23379992485046,1.65454626739025,-3.4386995780468,4.01054115968846
1.49306750000142,-1.15987708568573,-5.37722932219505,-7.01734407663345,8.9164470461746
1.50305550000121,-1.03586875140667,-2.18063019990921,-5.67154892206192,6.16397917860197
1.51304250000067,0.160427095703781,1.44291038990021,1.80057755470276,2.31296493203362
1.52303050000046,0.495397598594427,2.14569834887981,5.50023602843285,5.9246971697758
1.53301749999991,1.06381193719804,1.62251054227352,3.46538510084152,3.97154002808082
1.54300550000153,-1.31865574166179,-0.644726861715317,3.10732617259026,3.43656829323953
1.55299250000098,-4.07873638808727,-3.05787334620953,2.57937522411346,5.71313018158489
1.56298050000078,-5.30799244165421,-4.13887149274349,1.56853430986404,6.91124741818173
1.57296750000023,-6.4339276099205,-2.28889198243618,3.87452647447586,7.8515225528793
1.58295550000003,-6.14451733231545,0.923290554285049,6.58868703603745,9.0563985973236
1.5929425000013,-1.96920043677092,-1.94430094599724,2.75089277029037,3.9019825169291
1.60293050000109,5.28754999101162,-8.60816212534905,-0.585131893604994,10.1193388823902
1.61291750000055,7.87983879089356,-7.34700834095478,-2.17778377532959,10.9915027682578
1.62290550000034,2.26586827844381,0.594591665267944,-3.44458304643631,4.16567529549057
1.63289250000162,1.14480501025915,6.35865114033222,0.0489189025014639,6.46106925322618
1.64288112500071,-0.810339012444019,1.14083328902721,-2.86824638843536,3.19139268239023
1.65286812500017,-2.71394362986088,-1.49489330649376,-4.39245178699493,5.37529801266286
1.66285612499996,-2.67657875239849,-1.21807383835316,-3.20456419944763,4.34936885097745
1.67284312500124,-2.46965543836355,-0.212229954600334,-0.884341081380844,2.63178621587814
1.68283112500103,-1.3043544754386,0.104610196352005,0.368802675381303,1.35952171889452
1.69281812500049,0.679185965359211,-0.488182865381241,1.79790552332997,1.98294739123689
1.70280612500028,3.36593185633421,0.220027801394463,2.30058465957642,4.08296451989853
1.71279312500155,0.368882709145546,0.911760429739952,2.37605233311653,2.57157660279733
1.72278112500135,-2.17589161634445,0.352997578382492,-2.19410101532936,3.1101753779958
1.7327681250008,-2.19163232088089,0.518862621188164,-2.90096740722656,3.67261249621939
1.7427561250006,-0.929412296712398,0.263753280043602,-2.89575286030769,3.05266402311066
1.75274312500005,0.151856283545494,0.265723791718483,-2.83181706547737,2.84830780581495
1.76273112500166,0.85728659927845,-0.077501335144043,-1.4938595187664,1.72411224462345
1.77271912500146,1.22128103613853,-0.244625868201256,-0.380015223026276,1.3022214690123
1.78270612500091,1.35519455373287,-0.720776333212852,0.321905630417168,1.56834117330423
1.79269412500071,0.0448095524311066,-1.5154930472374,0.22342444896698,1.53252913727934
1.80268112500016,-0.607904605865479,-1.87714976727963,0.0632797372341156,1.97414375965248
1.81266912499996,-0.245896468162537,-2.60012172996998,0.571194616556168,2.67345495075186
1.82265612500123,0.731107193827629,-1.74581896483898,0.95727223277092,2.12103081413076
1.83264412500102,0.485763872265816,0.132725948095322,0.884067431688309,1.01742711811139
1.84263112500048,0.206440626382828,0.753006770610809,0.982168507575989,1.25470789671585
1.85261912500027,0.252754667401314,0.0369275057315826,-0.487394660711288,0.550274584060155
1.86260612500155,2.37787900328636,0.218142659068108,-0.682849611416459,2.48358176144597
1.87259412500134,2.92329383075237,0.700775347352028,0.472179036140442,3.04297320897535
1.8825811250008,1.19760039746761,-0.517434146404266,-0.0355300211906433,1.30508512760107
1.89256912500059,0.301401747465134,-0.924095131158829,-1.33048363566399,1.64772010049527
1.90255612500005,-1.11367472648621,-1.45171512722969,-1.05130605854094,2.11021151446165
1.91254412500166,0.408393514752388,-1.76068784952164,0.107553830891848,1.81062828677905
1.92253112500111,2.11101968228817,-1.25248528718948,0.675664479732513,2.54590769330044
1.93251912500091,3.07262470185757,-1.54441513001919,1.48583012223244,3.74618897073155
1.94250612500036,3.09339225769043,-1.19756999194622,1.26873236060143,3.55146890010126
1.95249412500016,1.75877756416798,-0.615594863891602,0.106533930301666,1.86644181130189
1.96248112500143,1.70809331417084,-0.0320596987009048,-0.939532730653882,1.94970057859299
1.97246912500123,1.11646034002304,0.209787572622299,-0.751110810935497,1.3618597456329
1.98245612500068,-0.114549293518066,0.800419503450394,-1.24466039702296,1.48424136381743
1.99244412500047,-0.929443579316139,0.230303113460541,-0.574911106824875,1.11688301623412
2.00243112499993,-2.75557288169861,-1.32210808396339,1.98431943610311,3.64399167349909
2.01241912500154,-3.46554472982883,-0.735121892094612,1.50491075634956,3.84904674630717
2.022406125001,-4.42294560134411,0.071810240149498,0.364877951145172,4.43855161311338
2.03239412500079,-6.47552645623684,-1.24416586875916,-0.27376999899745,6.59964708198549
2.04238112500025,-7.98791638612747,-3.82903864502907,-2.98932819128037,9.34903354214078
2.05236912500004,4.71541631162167,2.53009606003761,-1.08338980391622,5.45987825250299
2.06235612500132,-7.15221887648106,3.57988059997559,-0.407726347446442,8.00849678413968
2.07234412500111,4.34113019049168,0.908521656990051,1.52433666855097,4.68982144767872
2.08233112500056,7.01931751191616,3.98763559877872,1.83798409357667,8.27950732410939
2.09231912500036,-2.48183314204216,4.91744638323784,4.50984311968088,7.11895074017869
2.10230612500163,-7.44282958745956,-0.375302367210388,0.372978537529707,7.46161357376908
2.11229412500143,-7.80880038321018,-1.22828541576862,0.584099567681551,7.92636239345509
2.12228112500088,-7.35341571986675,-0.715230833888054,-0.235501141995192,7.39186976906444
2.13226912500068,-4.62696723461151,-0.726576771140099,-1.92544718384743,5.06399905729798
2.14225612500013,-3.02924245476723,-0.479103893637657,-2.67125837087631,4.06712080895561
2.15224412499992,-2.04587175965309,0.341236488819122,-3.51716102600098,4.08319180067112
2.1622311250012,-1.88342675328255,0.0493189251422882,0.00705393478274346,1.88408557378733
2.17221912500099,-1.35488172769547,-2.3228122651577,4.01316863536835,4.83080571034629
2.18220612500045,-2.56712472259998,-2.16620336472988,6.26553832411766,7.1091164605553
2.19219412500024,-2.47443349063396,0.947885112762451,11.3695214116573,11.6742162228007
2.20218212500004,-1.4481296145916,-6.60849623322487,-2.38462888285518,7.17326681186136
2.21216912500131,-0.993059531450272,-5.85584029555321,-7.09214633703232,9.25070659279116
2.2221571250011,-0.963892157971859,0.609617255330086,0.0773222641646862,1.1431098034447
2.23214412500056,1.1172163850069,-0.571389328837395,2.87019818902016,3.13252228408542
2.24213212500035,4.92850697636604,-2.99699330627918,0.0813747500628233,5.76877558446494
2.25211912500163,6.33284913182259,-1.32280039429665,-1.74256118863821,6.70009690271161
2.26210712500142,6.04120755672455,1.72960171222687,-0.289744665250182,6.29060114753788
2.27209412500088,3.34049295991659,2.7051236897707,-0.473253754377365,4.32441400749781
2.28208212500067,1.3694296002388,2.41226413965225,-0.489667985066772,2.81675885461673
2.29206912500013,-1.15772618740797,0.232502251267433,-1.3657248044014,1.80543387118218
2.30205712499992,-1.26143942087889,-0.61300688624382,-2.63083656907082,2.98132653499913
2.31204412500119,1.46802856653929,-0.285944048166275,-3.16525219917297,3.50081324198056
2.32203212500099,2.5617218953371,1.31682220101357,-2.56747964859009,3.85854785172557
2.33201912500044,2.63497171998024,2.76398234724998,-3.10409967899323,4.92118981529173
2.34200712500024,1.70735758826137,3.49085440278053,-3.29736477434635,5.09644472654282
2.35199412500151,1.1019227001071,3.79027102053165,-1.73240135908127,4.31063829554743
2.3619821250013,1.55559120565653,2.90644800245762,0.293061279058456,3.30956022809515
2.37196912500076,1.74156672343612,-0.839183034896851,0.0717500138282776,1.93453634825585
2.38195712500055,2.34106420263648,0.487573000788689,2.01476223349571,3.12691155766912
2.39194412500001,2.57343269884586,-0.693705478906631,2.93164950191975,3.96211458050628
2.40193212500162,1.94857935369015,-1.94053124606609,1.61298601269722,3.18815728779858
2.41191912500108,3.43391714036465,-0.249393103122711,1.11181882023811,3.61802776880042
2.42190712500087,3.27147739648819,-0.850331336259842,0.883061125874519,3.49362629501058
2.43189412500033,1.16141154125333,-2.3877058339119,0.586009158678353,2.71908489229525
2.44188212500012,1.67134531795979,-1.74466647863388,-0.019488258138299,2.4161200478743
2.45186912500139,2.46721042513847,-1.8732485049963,-0.425434018783271,3.12684846894136
2.46185712500119,1.15348227828741,-2.74691841781139,-0.619162834882736,3.04293358069718
2.47184412500064,0.982379884421825,-3.09525751948357,-0.838183745741844,3.35383979057766
2.48183212500044,2.24179499924183,-3.06455028176308,-0.662121158838272,3.85428562473789
2.49181912499989,2.29963229432702,-2.0619948720932,-0.701614934429526,3.16739562698836
2.50180712500151,1.42973149672151,-1.7701340264082,-1.03676615282893,2.50047809024941
2.51179412500096,1.34770163923502,-1.4445207130909,-1.86201658844948,2.71478278589769
2.52178212500075,2.46110271602869,-0.438648177981377,-1.09582376182079,2.72951800138069
2.53176912500021,2.68853513896465,-0.72386424779892,0.508996614217758,2.83042014477963
2.541757125,3.2225017029047,-1.81599666237831,0.844864189624786,3.79422674624267
2.55174412500128,4.46052624106407,-2.02592807650566,0.459380796700716,4.92053956744303
2.56173212500107,4.90667873561382,-2.15942585706711,-0.274812557548285,5.36788023231528
2.57171912500053,3.05474216222763,-2.88384325146675,-0.639787718653679,4.24939170960522
2.58170712500032,-2.73744125068188,-3.48934523642063,-2.07763208091259,4.89751670170744
2.5916941250016,-5.24264045119286,-2.27117199540138,-5.46404176354408,7.90564693917791
2.60168212500139,-5.14089188218117,-0.274927893877029,-5.09158523619175,7.24075927707265
2.61166912500084,-4.22057843774557,0.30522290289402,-2.48275641739368,4.90617190870065
2.62165712500064,-1.45128828048706,-0.293669389486313,0.000145449489355087,1.48070233489243
2.63164412500009,1.38681424945593,-1.51500363528728,1.90110347092152,2.79869329948416
2.64163195833498,3.17899023234844,-2.82847070395947,3.18709154963493,5.31636887041129
2.65161895833444,3.1298522785306,-2.82604410946369,4.98499809622765,6.52937260488715
2.66160695833423,-0.729426119327545,-2.16918836832047,4.01788792312145,4.6239446367338
2.67159395833369,-7.04307065606117,-1.53439417183399,0.679090363383293,7.24019153492973
2.68158195833348,-9.81698157548905,0.11320560336113,-2.19686207056046,10.0604247285684
2.69156895833476,-7.64172496676445,1.54562141060829,-3.32101500749588,8.47431688648795
2.70155695833455,-5.38071426272392,3.29532234191895,-3.15146271049976,7.0528683902297
2.711543958334,-2.44964012682438,3.62166363358498,-2.25028106331825,4.91741284515637
2.7215319583338,0.647169828414917,2.56468701839447,0.296415241956711,2.66163676800497
2.73151895833325,2.46762703925371,2.04125187456608,4.36152761757374,5.41099025864342
2.74150695833487,2.80481871664524,1.55681707441807,6.04450830996037,6.84300870565156
2.75149395833432,1.61907793432474,0.816525658965111,5.40726705372334,5.70321527731924
2.76148195833412,-0.949172084927559,0.336117836236954,4.05613573014736,4.17925111808568
2.77146895833357,-3.35172136813402,1.15131500780582,1.9290970158577,4.03496935222514
2.78145695833336,-4.24727302372456,1.41662423193455,-1.00941419363022,4.58966985379827
2.79144395833464,-2.30834596127272,2.72103220939636,-2.15607934936881,4.16907130213326
2.80143195833443,0.311124936193228,3.03513060092926,-1.87654648080468,3.58193288396627
2.81141895833389,1.73296298414469,2.50246562719345,-1.86697678148746,3.57086785282145
2.82140695833368,3.24412061333656,-0.375209981203079,-0.883349393606186,3.38310615190449
2.83139395833496,2.00059676885605,0.281548111438751,1.07724774241447,2.28956752884668
2.84138195833475,-1.19007795453072,1.91944677114487,1.43218513458967,2.67426919079926
2.85136895833421,-3.63217108011246,3.31416207075119,-0.737641603499651,4.97196662515193
2.861356958334,-3.2216234511137,2.24474842786789,-3.03772442579269,4.96442573237214
2.87134495833379,-1.0954635733366,0.405723091363907,-2.79523366838694,3.02951859678352
2.88133195833325,0.188828959017992,0.156015992760658,-2.29139999940991,2.30445466934298
2.89131995833486,0.624982568621635,0.0903786581754684,-1.95956597954035,2.05880313315927
2.90130695833432,1.91089404881001,-1.11344551563263,-1.50241750359535,2.67367450097606
2.91129495833411,3.47320633649826,-2.530964371562,-0.747770296633244,4.36212142455192
2.92128195833357,5.29148048937321,-7.17989023983479,-0.68573338508606,8.94543570212842
2.93126995833336,3.24564176648855,-6.04577189326286,2.78525451779366,7.40561887965024
2.94125695833463,1.2361127910018,-1.14374344825745,3.97375138521194,4.3158804407657
2.95124495833443,0.295650133788586,1.61096287608147,1.45277932047844,2.18933280789643
2.96123195833388,-0.700287104845047,2.33072588682175,-0.705143802165985,2.53375471789326
2.97121995833368,-0.968229914903641,1.41427365124226,-2.66510008335114,3.16865864096949
2.98120695833495,-1.38783283442259,1.21901465535164,-3.34128613471985,3.81788812569654
2.99119495833474,-2.18095647454262,3.13736214995384,-2.76036584436893,4.71372803612714
3.0011819583342,-2.36965036287904,4.43158486247063,-2.00322538465261,5.40990750173126
3.01116995833399,-1.25302162304521,2.4587992054224,-0.826318283379078,2.88072189318081
3.02115695833345,0.170616344064474,-0.11724895298481,0.4846654728055,0.527027394323806
3.03114495833324,0.600953143537045,1.57625555813313,1.29059743881226,2.12399812013603
3.04113195833452,1.14135544538498,9.92410607457161,0.398132820725441,9.99745384460453
3.05111995833431,2.50043927460909,4.86241765201092,0.758882637619972,5.52007290226099
3.06110695833377,2.64055025607347,-1.99497174739838,3.32823222577572,4.69356449582398
3.07109495833356,1.67387233838439,-1.51725422859192,2.3432797126472,3.25497600775988
3.08108195833483,0.580321096926928,-0.460367075800896,0.092630859464407,0.746519186722655
3.09106995833463,0.754380281567574,-0.0714968293905258,-0.608853024244309,0.972061423451373
3.10105695833408,1.56101479053497,-0.106395351290703,-0.883221339583397,1.79671007169791
3.11104495833388,1.82839129775763,-0.904702255725861,-0.893962090015411,2.22725596365034
3.12103195833333,1.61502274408937,-1.78087536156178,0.474168697446585,2.45043903637326
3.13101995833495,0.585932523608208,-2.59359682202339,1.31170281752944,2.9648989323325
3.1410069583344,-0.697114113271236,-2.53614792823792,1.47265035197139,3.01441759880559
3.15099495833419,-1.26885135143995,-2.85556728601456,0.683252411484718,3.19860628005499
3.16098195833365,-1.1792261070013,-3.02539030909538,-0.0992974162101746,3.24860288596001
3.17096995833344,-1.05339753448963,-2.12943022549152,-1.25856463730335,2.68851341770433
3.18095695833472,-1.05990051537752,-1.89690107703209,-0.93997777685523,2.36752635033377
3.19094495833451,-0.799709651470184,-2.29449653863907,-0.507728937864304,2.48234537621702
3.20093195833397,-0.0691085341572762,-3.28423602104187,0.00593960165977478,3.28496841845857
3.21091995833376,0.293182901144028,-3.23609940290451,0.9712388920784,3.39140097076235
3.22090695833322,0.27823244780302,-3.19823341906071,1.5605651396513,3.56952011521186
3.23089495833483,0.208810502886772,-2.63466824948788,1.54227797269821,3.06001633264358
3.24088295833462,0.636705943644047,-2.02198588371277,0.77491862654686,2.25706009011161
3.25086995833408,0.71855716869235,-0.610808333158493,1.07254000291228,1.42819931465538
3.26085795833387,-0.0490386973321438,-1.68645920097828,2.81514957726002,3.28201410306957
3.27084495833333,-0.149925240576267,-5.15066024065018,2.17770483791828,5.59411984618395
3.28083295833494,-2.77843724906445,-3.16541065871716,-1.38778532579541,4.43457848005896
3.2908199583344,-3.1860875827074,-1.37419215738773,-3.39000484317541,4.85094743394123
3.30080795833419,-2.38086766138673,0.576143115162849,-3.73619567781687,4.46762015542102
3.31079495833364,-2.1301254594326,3.18738507986069,-3.62385809361935,5.27533938272524
3.32078295833344,-3.32966947138309,5.16828842639923,-3.05409926086664,6.86479616174719
3.33076995833471,-3.92943329125643,5.80791593134403,-2.22929014384747,7.3581293819455
3.34075795833451,-3.21758536398411,5.24636103451252,-1.06584479480982,6.24605353848326
3.35074495833396,-2.00586335599422,3.61779394626617,0.134826267957687,4.13885237271058
3.36073295833376,-0.149995699524879,1.54155525684357,0.210945906043053,1.56313450958461
3.37071995833503,1.4224211615324,0.310924522876739,-0.91897647857666,1.72176473069885
3.38070795833482,1.34416612029076,-0.344416204690933,-1.75895561188459,2.24038611082365
3.39069495833428,-0.22805061981082,-0.345360530018806,-1.50691664367914,1.56271518578664
3.40068295833407,-0.565462298691273,-0.75455043554306,-1.16989833623171,1.50258313851086
3.41066995833353,0.90174765765667,-1.9810588824749,-0.855633006691933,2.33877125347108
3.42065795833332,1.56102151483297,-2.27347579836845,-0.834167878031731,2.88120051788807
3.4306449583346,1.31727623730898,-1.75228423118591,-1.27275582969189,2.53488147933121
3.44063295833439,0.889428451359272,-0.983714511394501,-1.12201928794384,1.73715413608968
3.45061995833385,0.621229094713926,-0.345799071192741,-0.389815887361765,0.810838462208403
3.46060795833364,0.264886031895876,0.100137076377869,0.208964723199606,0.35193507853145
3.47059495833491,0.0240326410531998,0.480891387462616,0.604320847392082,0.77268219920249
3.48058295833471,-0.05339589625597,0.781302616596222,0.880184880495071,1.17813849962099
3.49056995833416,0.0339328542351723,1.04862386763096,1.03574069738388,1.47428702991619
3.50055795833396,0.16922719180584,1.22668035507202,1.1982432988286,1.72312783598715
3.51054495833341,0.323431863337755,1.18442662060261,1.45761248275638,1.90580920863067
3.52053295833502,0.345053843557835,0.922331610918045,1.57793078541756,1.86000626854352
3.53051995833448,0.299868315160274,0.502737169861793,1.33191035628319,1.45487142578721
3.54050795833427,0.183985856473446,0.0131375241279602,0.817374089956284,0.837928274289836
3.55049495833373,0.0179484669864178,-0.487256081700325,0.198763086050749,0.526542876694324
3.56048295833352,-0.148726122826338,-0.912020630836487,-0.484813407361507,1.04352533780441
3.5704699583348,-0.267206645607948,-1.15672485172749,-1.30657144725323,1.76537268610297
3.58045795833459,-0.310787990391254,-1.08124256014824,-2.111994997859,2.39294745446464
3.59044495833405,-0.0416840694844723,-0.631658919453621,-2.28574998110533,2.3717890986125
3.60043295833384,0.766953549385071,0.0235438138246536,-1.62535696685314,1.79737512160979
3.6104199583333,1.69881553709507,0.619301998615265,-0.550908286571503,1.89024049654472
3.62040795833491,2.35509898200631,0.990107272267342,0.356710414141417,2.57954374748729
3.63039495833436,2.66726647675037,1.10640254437923,0.910684542059899,3.02783476817214
3.64038283333502,2.49900875329971,1.02009237885475,0.952421821206808,2.86229637458755
3.65036983333448,1.72505213990808,0.868850052952766,0.482817898839712,1.99093405801334
3.66035783333427,0.469926981031895,0.572868089675903,-0.204884097576141,0.76875659939298
3.67034483333373,-0.634934675842524,0.11063341319561,-0.75497392013669,0.992656745702724
3.68033283333352,-1.08325444087386,-0.351493089795113,-1.10483037427068,1.58670656762923
3.6903198333348,-1.12601805254817,-0.742707484960556,-1.31297078624368,1.88239829696325
3.70030783333459,-0.935541055798531,-1.05921960711479,-1.3051855109632,1.92371839446664
3.71029483333405,-0.387720683813095,-1.11557214796543,-0.983136806488037,1.53668035916524
3.72028283333384,0.382078997790813,-0.832986740469933,-0.407262078523636,1.00285276633958
3.7302698333333,0.998574479073286,-0.27837950527668,0.215960332006216,1.05890745781433
3.74025783333491,1.32061455890536,0.468626852631569,0.576888927519321,1.51539921304406
3.75024483333436,1.21585043460131,1.12504288315773,0.601381452083588,1.76229209246771
3.76023283333416,0.723159804493189,1.35092550158501,0.350833231508732,1.57195539694935
3.77021983333361,0.0787598752230406,1.09767674446106,-0.156600860506296,1.11158498675859
3.78020783333341,-0.44389444604516,0.497562968730927,-0.732880361974239,0.990820272324686
3.79019483333468,-0.703053130209446,-0.0590346586704254,-1.06384826302528,1.27653512351347
3.80018283333447,-0.738888668417931,-0.461784440875053,-0.997161353230476,1.32420999034411
3.81016983333393,-0.436708071827889,-0.681556134223938,-0.639419344067574,1.03154728523016
3.82015783333372,0.0844606181234121,-0.745038185119629,-0.187336311042309,0.77285858132978
3.83014583333352,0.632478041276336,-0.580451343655586,0.0762333664298058,0.861837433165645
3.84013283333479,0.990743741691113,-0.26082090139389,0.0963246917724609,1.02901853751479
3.85012083333459,1.07539446741343,0.0764283710718155,-0.1143434715271,1.08415358041606
3.86010783333404,0.879867376685143,0.374958550930023,-0.391454131007195,1.03343933162665
3.87009583333383,0.482129535377026,0.536010165810585,-0.55170701622963,0.907819595785505
3.88008283333329,0.146928834915161,0.445406389832497,-0.535880942344666,0.712139957453134
3.8900708333349,-0.00769405871629715,0.188199652433395,-0.308676268458366,0.361606618336781
3.90005783333436,-0.128792964667082,-0.07647456407547,0.072041497528553,0.166210601540413
3.91004583333415,-0.130057863593102,-0.248055260181427,0.385051429867744,0.476141852423489
3.92003283333361,-0.00569577276706696,-0.303076390028,0.449050959348679,0.541788246561133
3.9300208333334,0.229659481197596,-0.277189596891403,0.359813385307789,0.508962888799781
3.94000783333468,0.498873768299818,-0.17831025660038,0.227290043234825,0.5764810040758
3.94999583333447,0.649423564597964,-0.0617249625921249,0.220460202991962,0.688595409776585
3.95998283333392,0.653978253230453,0.0469496333599091,0.270923428237438,0.70943028391725
3.96997083333372,0.628706367909908,0.141832986474037,0.325790483951569,0.722168770119569
3.97995783333499,0.623175778985024,0.213731519579887,0.398518152236938,0.769964889873468
3.98994583333479,0.65714137762785,0.222671327590942,0.406946913599968,0.804377461649865
3.99993283333424,0.683251753672957,0.177537839412689,0.397753628790379,0.810284266499364
4.00992083333404,0.577196271792054,0.20514137506485,0.399280336797237,0.731206747293171
4.01990783333349,0.372068564593792,0.289080494642258,0.401234768629074,0.61886338451901
4.02989583333329,0.135814739763737,0.334427990913391,0.491040984392166,0.609433321206091
4.03988283333456,-0.0544820165634155,0.284534869194031,0.619002621173859,0.683441750946039
4.04987083333435,-0.0819747840240598,0.192625994682312,0.692395994961262,0.723351126965001
4.05985783333381,0.00544722955673933,0.163102233409882,0.658088626563549,0.678021128922568
4.0698458333336,0.153746067099273,0.157477796673775,0.538224214017391,0.581482943987491
4.07983283333488,0.276356039755046,0.189571993947029,0.413114264309406,0.531952626625762
4.08982083333467,0.337017101459205,0.242705057859421,0.351962913572788,0.544393391140226
4.09980783333413,0.254695942997932,0.318308971524239,0.409959399104118,0.578149923156818
4.10979583333392,0.0462368212267756,0.393726359009743,0.464075087606907,0.610347422664816
4.11978283333337,-0.182487215101719,0.389974785447121,0.493714916110039,0.655084983303427
4.12977083333499,-0.389997333772481,0.3712625259161,0.58356118530035,0.794026095596609
4.13975783333444,-0.574048679061234,0.313845791816711,0.702028113305569,0.959622081261359
4.14974583333424,-0.702379530966282,0.24073571562767,0.803037886619568,1.09369124420268
4.15973283333369,-0.780619954168797,0.184400131702423,0.845386053621769,1.16535338034287
4.16972083333349,-0.757392182350159,0.139039771556854,0.842622074782848,1.14148453203321
4.17970783333476,-0.758046193420887,0.0907692521810532,0.772014899253845,1.08576244785465
4.18969583333455,-0.698817699551582,0.0819615912437439,0.566078887581825,0.903055472610431
4.19968283333401,-0.648991820812225,0.132193851470947,0.342823130786419,0.745783679661933
4.2096708333338,-0.642117541730404,0.199473084211349,0.201215554475784,0.701849092102912
4.21965783333326,-0.716882964670658,0.189711157679558,0.212325556576252,0.771358315154848
4.22964583333487,-0.782022993564606,0.156001959443092,0.327071024179459,0.861900242877116
4.23963283333433,-0.808162094056606,0.144763610959053,0.455808878839016,0.939065603329365
4.24962083333412,-0.805444892942905,0.153803406357765,0.512685330212116,0.96707973362581
4.25960783333358,-0.765420409440994,0.117600955367088,0.507081358730793,0.9256510639892
4.26959483333485,-0.681093034744263,0.110176745653152,0.423675212860107,0.809646418661829
4.27958283333464,-0.633296432197094,0.152716408967972,0.313693179488182,0.723042241822043
4.28957083333444,-0.63439483165741,0.191916727423668,0.216558648347855,0.697270737140814
4.29955783333389,-0.659598377645016,0.201143633723259,0.169215789735317,0.710044199099662
4.30954483333335,-0.655397153198719,0.201598547101021,0.176783840954304,0.708124232770482
4.31953283333496,-0.594075063765049,0.187361161708832,0.190809557139874,0.651488812950955
4.32951983333442,-0.460919930040836,0.140022688508034,0.127288329899311,0.498252801431586
4.33950783333421,-0.301237440705299,0.0912656807899475,0.0313071620464325,0.31631243821281
4.34949483333367,-0.143544758856297,0.0474039620161057,-0.0716354084014893,0.167283786263896
4.35948283333346,-0.0424031491018832,0.0182731336355209,-0.0866063269972801,0.0981457606959055
4.36946983333473,0.0113769092224538,-0.00339138507843018,-0.0289293918013573,0.031270517523741
4.37945783333453,0.00417957147583365,-0.00568992555141449,-0.0263186100125313,0.0272490972968639
4.38944483333398,-0.00180181950330734,0.0251009273529053,-0.0508286762237549,0.0567173468540061
4.39943283333378,-0.0104366952180862,0.0482097083330154,-0.0709816896915436,0.0864378438885204
4.40941983333323,-0.0225529848597944,0.0827790319919586,-0.116627686321735,0.144786126684752
4.41940783333484,-0.0132155661843717,0.0592890125513077,-0.209470361173153,0.218100138488938
4.4293948333343,-0.0204377728700638,-0.00177521467208862,-0.219435478448868,0.220392339134335
4.43938283333409,-0.0626891684532166,-0.023388277888298,-0.135613303184509,0.151221398566968
4.44936983333355,-0.122105065584183,-0.0339723229408264,-0.0466993725299835,0.135072562580294
4.45935783333334,-0.156759173870087,-0.046788250207901,0.00857728064060211,0.163817424876406
4.46934483333462,-0.191616472899914,-0.0312744176387787,0.00493797361850739,0.194214689116723
4.47933283333441,-0.21756115347147,-0.00841882109642029,-0.0557040846347809,0.224736906389424
4.48931983333387,-0.224865202903748,-0.00441055476665497,-0.11464109480381,0.25244087047883
4.49930783333366,-0.241984680891037,-0.0306312239170074,-0.179577348232269,0.302890874181981
4.50929483333493,-0.263019454479218,-0.0232280641794205,-0.203356220126152,0.333275454637848
4.51928283333473,-0.257329218294472,-0.00101273775100708,-0.149762687981129,0.297738500931823
4.52926983333418,-0.312453862130642,-0.0148677152395248,-0.0710919097065926,0.320784233625233
4.53925783333398,-0.377785094976425,-0.0060050904750824,-0.014197039604187,0.378099451244621
4.54924483333343,-0.438570117652416,0.0326929521560669,0.00543264806270599,0.439820521216674
4.55923283333323,-0.454320470094681,0.114902465343475,-0.0354987385869026,0.469967899467955
4.5692198333345,-0.393196308910847,0.175626969337463,-0.0613852393627167,0.434990019783666
4.57920783333429,-0.33318633466959,0.166697101593018,-0.126046088933945,0.393304810326053
4.58919483333375,-0.283016054928303,0.0965012776851654,-0.203556779623032,0.361726341966616
4.59918283333354,-0.273740013744682,0.00531336486339569,-0.181880274116993,0.32869782640593
4.60916983333482,-0.282494172658771,-0.0481103056669235,-0.0372394546866417,0.288971168255393
4.61915783333461,-0.275502693448216,-0.0680703610181809,0.0441151955723763,0.287195854125292
4.62914483333407,-0.233538103792816,-0.0731141692399979,0.0208380147814751,0.245601202209664
4.63913295833481,-0.182980738375336,-0.00789374113082886,-0.0125799921154976,0.18358245549902
4.64911995833427,-0.143309426698834,0.0784140855073929,0.0532719352841377,0.171826248505944
4.65910795833406,-0.166377861890942,0.101694774627686,0.13576269954443,0.237602463584804
4.66909495833352,-0.230490206088871,0.0814470362663269,0.164536263048649,0.294671913621697
4.67908295833331,-0.287209659721702,-0.00170738697052002,0.14891133338213,0.323522625201649
4.68906995833459,-0.303451799545437,-0.0635247355699539,0.060879747569561,0.315950518816998
4.69905795833438,-0.240601814389229,-0.133483747243881,-0.0612729728221893,0.281889199977803
4.70904495833383,-0.152155076265335,-0.142098450064659,-0.132661044001579,0.246864516161552
4.71903295833363,-0.0548106300830841,-0.0851524168252945,-0.0646017926931381,0.12011881984294
4.7290199583349,-0.0419163683988154,-0.0449972480535507,0.0256034955382347,0.0666128610398502
4.7390079583347,-0.0827550584077835,0.00158225655555725,0.0451007437705994,0.0942601735439975
4.74899495833415,-0.117940386235714,0.0513063937425613,0.0257739418745041,0.131173841996209
4.75898295833395,-0.0897568250633776,0.117117975354195,0.0313764515519142,0.150855525283342
4.7689699583334,0.00114227185025811,0.140741896033287,0.0582970324158669,0.152342148050108
4.77895795833501,0.129661130011082,0.126261851191521,0.0988068348169327,0.20619615493166
4.78894495833447,0.217190732359886,0.0390740185976028,0.139888787269592,0.261280435463788
4.79893295833426,0.276259323153645,-0.0523968994617462,0.173204175531864,0.330248898747879
4.80891995833372,0.241062574982643,-0.0510420995950699,0.173324335813522,0.301260329903448
4.81890795833351,0.136759649813175,0.0228555965423584,0.115721660256386,0.18060200099341
4.82889495833479,0.0329867747426033,0.133650977611542,0.0240174382925034,0.139741004957651
4.83888295833458,-0.0411249477602541,0.211123661398888,-0.0183207884430885,0.215870593226433
4.84886995833404,-0.0399900214746594,0.263584295511246,0.0823419526219368,0.279027023457042
4.85885695833349,-0.0147218637540937,0.235642790794373,0.253690514266491,0.346558992315235
4.86884495833328,0.0044248621724546,0.164603798389435,0.391719886958599,0.424921710069435
4.87883195833456,0.00905064929276705,0.0769055038690567,0.443707481324673,0.450413920479218
4.88881995833435,-0.00959939220920205,0.0101788330078125,0.413021878302097,0.413258791713352
4.89880695833381,-0.0992547863535583,-0.0374724662303925,0.342729867696762,0.358774944151509
4.9087949583336,-0.203341053910553,-0.0331098586320877,0.267328560054302,0.33750319400681
4.91878195833488,-0.281183574087918,0.0648327577114105,0.259361144006252,0.387989293447067
4.92876995833467,-0.282665221989155,0.188384424448013,0.391934772133827,0.518653241293624
4.93875695833412,-0.221232072003186,0.309124749898911,0.508305180966854,0.634725056761298
4.94874495833392,-0.13236575961113,0.406380903124809,0.479298605918884,0.642178547117352
4.95873195833337,-0.0994649389386177,0.410272225141525,0.227169590592384,0.479398159873975
4.96871995833499,-0.0798934310674667,0.356410013437271,-0.116750185489655,0.383460120244539
4.97870695833444,-0.0857336300611496,0.307061267495155,-0.216700150966644,0.385481300127723
4.98869495833424,-0.201087500452995,0.287150913476944,0.0895278882980347,0.361810824509414
4.99868195833369,-0.412588891983032,0.329224553704262,0.539741274118424,0.754943073043614
5.00866995833349,-0.638497530519962,0.412316411733627,0.811957229375839,1.11218634328995
5.01865695833476,-0.811437923535705,0.453379653096199,0.869002957642078,1.27245854705929
5.02864495833455,-0.936388390436769,0.476611810326576,0.773910274207592,1.30495944305239
5.03863195833401,-0.996033498421311,0.505773044228554,0.713006260693073,1.32524225333828
5.0486199583338,-0.96620422013104,0.495616430640221,0.854984842836857,1.3820945419183
5.05860695833326,-0.85231938958168,0.500101245045662,0.982370236515999,1.39341339118928
5.06859495833487,-0.652366175875068,0.472934496402741,0.981971164047718,1.27024250926144
5.07858195833433,-0.43797260530293,0.417586507201195,0.844531775414944,1.0389573685565
5.08856995833412,-0.198087367191911,0.353854780197144,0.667840612828732,0.781321249328884
5.09855695833357,-0.0331818524748087,0.322302619814873,0.570723038613796,0.656281038030016
5.10854495833337,0.0902376671880484,0.315912782549858,0.547913050353527,0.638868087718929
5.11853195833464,0.218727892264724,0.294569275975227,0.606456542909145,0.708803560685505
5.12851995833444,0.3494911493361,0.318594900369644,0.701367962658405,0.845910038390261
5.13850695833389,0.445386728569865,0.393450955152512,0.765129510462284,0.968811725711887
5.14849495833369,0.495844179689884,0.455823204517364,0.724670578837395,0.989334974688219
5.15848195833496,0.529078876376152,0.515327394604683,0.610337047576904,0.958122170029686
5.16846995833475,0.552695926576853,0.583818755149841,0.508079478442669,0.951032009205753
5.17845695833421,0.576288272291422,0.634628135561943,0.443816239535809,0.965315439482435
5.18844395833366,0.595788882672787,0.653272567391396,0.469511536359787,1.00108467314087
5.19843195833346,0.512971989959478,0.619844035506249,0.578169467747211,0.990770823283948
5.20841895833473,0.24024528041482,0.531758070588112,0.622400730550289,0.853151281887755
5.21840695833453,-0.108846796452999,0.401472165584564,0.58127872467041,0.714781421549063
5.22839395833398,-0.326867102533579,0.360984290242195,0.492943376004696,0.692924911131982
5.23838195833378,-0.4254453112185,0.391779820919037,0.408068701922894,0.707824276502434
5.24836895833323,-0.516673862189055,0.43368798494339,0.375858145058155,0.772208840508945
5.25835695833484,-0.571857836991549,0.445442057847977,0.4041955062747,0.829948203155567
5.2683439583343,-0.636513570249081,0.340696206092834,0.42617197394371,0.838359100464927
5.27833195833409,-0.728569940775633,0.176909848451614,0.405546797811985,0.852396303544623
5.28831895833355,-0.904996078312397,-0.027122894525528,0.335559134781361,0.965584530791311
5.29830695833334,-1.20861567467451,-0.269825028777122,0.218486767709255,1.25749507469713
5.30829395833462,-1.55838997542858,-0.560438663363457,0.0910668754577637,1.65860302264121
5.31828195833441,-1.84524151146412,-0.806042186021805,-0.0571310976147652,2.01441907347797
5.32826895833387,-2.04998907655478,-0.954477263689041,-0.163981069922447,2.26723881675181
5.33825695833366,-2.10320093169808,-0.95319438457489,-0.128437600135803,2.31268889196308
5.34824395833493,-2.06427894070744,-0.84420930147171,0.0103522029519081,2.23025650046033
5.35823195833473,-2.04759668827057,-0.628309049606323,0.188202868402004,2.15008017973948
5.36821895833418,-2.01090014755726,-0.407577828168869,0.370660262703896,2.08500074815535
5.37820695833398,-2.02549859851599,-0.283730877041817,0.443511599600315,2.09280919392026
5.38819395833343,-2.06115082651377,-0.230558052062988,0.370909061729908,2.10691083747814
5.39818195833323,-2.14526945561171,-0.214068903923035,0.233280223309994,2.16850782691576
5.4081689583345,-2.19073272675276,-0.264798177480698,0.105358639955521,2.20919179743995
5.41815695833429,-2.14498469620943,-0.390337312817574,-0.0144706892967224,2.18025960967932
5.42814395833375,-1.99117807388306,-0.607628617286682,-0.0553678697347641,2.08256290648262
5.43813095833502,-1.82551008224487,-0.887964016199112,-0.140921990275383,2.0349020029931
5.44811895833482,-1.63291215419769,-1.2120447742939,-0.296843258142471,2.05513273491625
5.45810595833427,-1.50977563977242,-1.56274030387402,-0.472482506632805,2.22369500131571
5.46809395833407,-1.35787316322327,-1.83336874008179,-0.658696444630623,2.37464554632477
5.47808095833352,-1.23878759980202,-1.93715389430523,-0.812344607412815,2.43866022414723
5.48806895833332,-1.14111249357462,-1.90275238573551,-0.962472307831049,2.41846176479098
5.49805595833459,-1.04037461578846,-1.72645123243332,-1.09197702482343,2.29247181485176
5.50804395833438,-0.879154308736324,-1.49083183050156,-1.22895828410983,2.12269411585571
5.51803095833384,-0.589147615134716,-1.24608609437943,-1.27025059014559,1.87439644386931
5.52801895833363,-0.24347396671772,-0.975948239564896,-1.23287781894207,1.59114495103948
5.53800595833491,0.150350333154202,-0.6577176207304,-1.18535808205605,1.36391769326247
5.5479939583347,0.585687817633152,-0.287010580301285,-1.12818590775132,1.30315338137053
5.55798095833416,1.03658532768488,0.126922586560249,-1.08679449141026,1.50722949516999
5.56796895833395,1.46515612185001,0.492120965123177,-1.15627987861633,1.93024575207442
5.57795595833341,1.80237849712372,0.724640758037567,-1.34435747042298,2.36240756081276
5.58794395833502,2.07989963114262,0.793442605733871,-1.49619621232152,2.68218879834851
5.59793095833447,2.20614598721266,0.688374572396278,-1.60524956166744,2.81385248796908
5.60791895833427,2.18230718135834,0.38849017739296,-1.58880836069584,2.72721492712914
5.61790595833372,2.0113974532485,-0.017234668135643,-1.34056847468019,2.41725889884114
5.62789395833352,1.81671002268791,-0.384079037904739,-0.902761272490025,2.06468639967438
5.63788095833479,1.64854614704847,-0.590621990561485,-0.340123325139284,1.78387853033411
5.64786795833425,1.64379557669163,-0.675641090869904,0.222140254229307,1.79106143785519
5.65785595833404,1.75441437184811,-0.744591457843781,0.763178440779448,2.05300452013912
5.66784295833349,1.87170045465231,-0.775282908082008,1.2770829154551,2.39484173849903
5.67783095833329,2.02509747952223,-0.673213911652565,1.50576678872108,2.61181362168613
5.68781795833456,1.9963628000021,-0.443949848413467,1.3205870769918,2.43444164544076
5.69780595833436,1.76611406564713,-0.156373257637024,0.874646690189838,1.97702258996721
5.70779295833381,1.36313302606344,0.236626292467117,0.323781819194555,1.4209005297601
5.71778095833361,0.90621346861124,0.711088081598282,-0.276613792330027,1.18464522140206
5.72776795833488,0.447152953147888,1.20037256240845,-0.689590208530426,1.45477651472415
5.73775595833467,0.0848425143957138,1.54552551627159,-0.799827180504799,1.74228898072903
5.74774295833413,-0.22615714520216,1.70980304002762,-0.612372024804354,1.83018386693159
5.75773095833392,-0.526743206083775,1.56786889672279,-0.251919100284576,1.67306142013805
5.76771795833338,-0.645590203106403,1.1278700119257,-0.14711477637291,1.30786858344999
5.77770595833499,-0.692166491746902,0.539856464266777,-0.617946760207415,1.07349785875831
5.78769295833445,-0.868510622084141,0.0476653325557709,-1.25339219033718,1.52563910129456
5.79768095833424,-1.08799463242292,-0.207981367707252,-1.71242259263992,2.03945573751384
5.8076679583337,-1.22832488447428,-0.25213018476963,-1.98389200463891,2.34695103015826
5.81765595833349,-1.23609729588032,-0.119256886839867,-2.11897920459509,2.45606017830342
5.82764295833476,-1.13845084100962,0.234873881936073,-1.99062492728233,2.30517323837689
5.83762995833422,-1.0698998388648,0.720912573337555,-1.58555380046368,2.04410896425898
5.84761795833401,-1.12610897675157,1.24601651251316,-0.957292844206095,1.93315497737355
5.85760495833347,-1.33586088135839,1.65916322886944,-0.294914115518331,2.15042350477947
5.86759295833326,-1.55713779419661,1.82157549083233,0.120525878816843,2.39944615825842
5.87757995833454,-1.7306240978837,1.66939936459064,0.107878936082125,2.40698813281695
5.88756795833433,-1.8624872893095,1.18479265630245,-0.234988487362862,2.21986759300206
5.89755495833379,-1.86009343922138,0.509597123265266,-0.504717037081718,1.9935837374425
5.90754295833358,-1.62102973490953,-0.140391647815704,-0.538363670110703,1.713850243613
5.91752995833485,-1.421384742558,-0.581903207302094,-0.504981915950775,1.61677229827903
5.92751795833465,-1.32133990600705,-0.721827077865601,-0.689780389219523,1.65613117321623
5.9375049583341,-1.33144140958786,-0.492268899679184,-0.954019426703453,1.71032685861044
5.9474929583339,-1.39862854868174,0.11472470998764,-0.935246356129646,1.68641908282701
5.95747995833335,-1.45992008641362,0.824831628799439,-0.587137927114964,1.77663862955829
5.96746795833496,-1.26796374410391,1.37817878901958,-0.40912149310112,1.91689572668489
5.97745495833442,-0.697536209151149,1.99704984784126,-0.726162642091513,2.23653236967612
5.98744295833421,0.196747843176126,2.72011828958988,-1.47297472625971,3.09958186976174
5.99742995833367,1.14401388198137,3.46465127527714,-2.47478549301624,4.40875713301257
6.00741795833346,1.81037047147751,4.30043415427208,-3.32502327382565,5.72948120956075
6.01740495833474,1.98379304051399,5.48654711186886,-3.95559607297182,7.04871437432801
6.02739195833419,1.84567800611258,6.91801976323128,-3.69680327832699,8.05803196974022
6.03737995833399,2.04833972319961,7.61613755106926,-1.78962250381708,8.08727367687116
6.04736695833344,3.26200958490372,7.10571655511856,-0.126384057998657,7.81971145399918
6.05735495833324,4.6736110585928,6.53888337671757,1.12405616551638,8.1156107844419
6.06734195833451,5.42249378800392,5.99142202377319,2.54720676720142,8.47282946026723
6.0773299583343,4.87765374183655,4.74205330252647,2.56941741585732,7.27189668560859
6.08731695833376,3.24728454172611,2.9532871234417,2.10297128230333,4.86716035719108
6.09730495833355,2.15151705935597,0.724791031479836,2.04456286042929,3.05525530623223
6.10729195833483,1.70905839711428,-1.30191706359386,2.06093009412289,2.97712974156066
6.11727995833462,1.83214886471629,-1.66405968725681,2.15174933999777,3.27961725318905
6.12726695833408,1.62387162789702,-0.782936913371086,3.00976099401712,3.50836293950824
6.13725495833387,1.30354931384325,-0.142380870580673,4.36712983489037,4.55975176086572
6.14724195833333,1.46509706497192,-0.437108606100082,4.55476230740547,4.80452214276068
6.15722995833494,2.6205954632163,-1.78058066189289,3.21383671402931,4.51295186100844
6.16721695833439,3.89235200375319,-3.99686425924301,2.31881101548672,6.04170609625114
6.17720395833385,4.87260408639908,-6.47681284368038,2.57473984390497,8.50415548180112
6.18719195833364,5.33243321835995,-8.97034158647061,3.1744296965003,10.9077438594906
6.19717895833492,5.40886158943176,-11.4974970817566,3.26714870274067,13.1195458566389
6.20716695833471,5.25800342559815,-12.9671198916435,3.25032714039087,14.3651461819022
6.21715395833417,4.20011172115803,-12.2654399800301,3.85257661163807,13.5249511245871
6.22714195833396,1.91650737583637,-10.7124756360054,5.04168802142143,11.993696380974
6.23712895833341,-0.393250834196806,-10.5822534656525,6.42910248756409,12.3883854244818
6.24711695833503,-1.33363104566932,-11.5679186081886,7.47907530784607,13.8395043318785
6.25710395833448,-1.59940322309732,-13.480290248394,7.92371688187122,15.7181934418384
6.26709195833428,-1.38298695445061,-15.5327728700638,7.41989037573338,17.269466092994
6.27707895833373,-0.555847137272358,-17.1971781277657,5.89579958260059,18.188247697794
6.28706695833353,0.871805381923914,-17.9395441353321,4.01698423594236,18.4044410607682
6.2970539583348,1.83814255312085,-17.2202734601498,2.97916777700186,17.5724792425957
6.30704195833459,1.77202823191881,-15.5699190616608,3.43097452908754,16.0416348873995
6.31702895833405,2.31994654476643,-12.7882091259956,2.47614964842796,13.2307128191259
6.3270159583335,2.57419517576694,-8.70479964315891,0.562143126726151,9.09483493667734
6.3370039583333,2.4677214717865,-4.0704918140173,-0.913877414166927,4.84703257657945
6.34699095833457,2.60874783486128,0.164414348602295,-0.920181589722633,2.77116067776378
6.35697895833437,3.01506471097469,3.76923975527287,-1.1141375336051,4.95369417585321
6.36696595833382,2.48402058541775,6.50406262278557,-2.34635607898235,7.34701134606943
6.37695395833362,1.90780028700829,8.63858518838883,-3.76272537231445,9.61368598507454
6.38694095833489,1.67381401240826,10.5714220833778,-4.0644498860836,11.4488589426872
6.39692895833468,1.98946864038706,12.6559182107449,-2.72742555499077,13.0984388911871
6.40691595833414,2.42437138438225,14.8854077446461,-1.0648843896389,15.1190912126714
6.41690395833393,2.66489338427782,16.8449816179276,-0.102601239234209,17.0547820118633
6.42689095833339,3.17925803482533,17.9142151665688,0.0224870757758617,18.1941554449417
6.436878958335,3.29186195969582,17.7524881982803,0.0177609175443649,18.0551241436321
6.44686595833446,2.10306571483612,16.5596562051773,0.283701056241989,16.695076679186
6.45685395833425,0.296652638912201,14.609323271513,0.454423381090164,14.6193990932947
6.46684095833371,-1.71716702342033,12.4229125142098,0.128887835741043,12.5416916720287
6.47682795833498,-3.53577768355608,10.4407239496708,-0.808205655813217,11.0527660249754
6.48681595833477,-4.51039246559143,8.71978781104088,-2.18191775679588,10.0567939603366
6.49680295833423,-4.17853374123573,7.57898200392723,-3.49803507596254,9.33473951619233
6.50679095833402,-2.93488827466965,7.2527500551939,-3.8872386136651,8.73650826059688
6.51677795833348,-1.41421810269356,7.60136046767235,-3.55000600576401,8.50783382785763
6.52676595833327,-0.073043417930603,8.23135468482971,-2.96955992460251,8.75093260368153
6.53675295833455,0.853961580097675,8.76055401384831,-2.36866905391216,9.11521530721012
6.54674095833434,1.30492399424315,8.83783198535442,-1.79654195263982,9.11250041534705
6.5567279583338,1.31437426418066,8.44859511852265,-1.65722370743752,8.70934725450525
6.56671595833359,1.13946504056454,7.91434028685093,-2.1783202573657,8.28735433648098
6.57670295833486,0.962367496490479,7.55003419339657,-2.84967650860548,8.1271042643402
6.58669095833466,0.897335348725319,7.57116310715675,-3.40871622562408,8.35147099797852
6.59667795833411,0.724448969364166,7.9651198464632,-3.46816369771957,8.71757534592703
6.60666595833391,0.386031130850315,8.57828987002373,-2.85414641261101,9.04887997891217
6.61665295833336,-0.0731887395121157,9.30746923685074,-1.90845195919275,9.50139616409404
6.62663995833464,-0.646586568653584,10.0882900428772,-1.21310019671917,10.1815166977842
6.63662795833443,-1.21583990961313,10.8391672575474,-0.311362186968327,10.9115883323359
6.64661433333458,-1.00223498225212,11.182487694025,1.31123080104589,11.3036203138766
6.65660233333438,0.330543977916241,10.1570801961422,2.90464179754257,10.5694125382744
6.66658933333383,2.40890257537365,8.30473958015442,2.92511582314968,9.12840696346662
6.67657733333363,5.45039436221123,5.45269991934299,2.50787810236216,8.10729225391158
6.6865643333349,7.20257451295853,-0.0999856334924698,0.518177619874477,7.22188235762418
6.69655233333469,5.65844765067101,-7.95033516168594,-2.23547503620386,10.0111541610353
6.70653933333415,1.71802349433303,-16.7979653263092,-1.87466791659594,16.9893385282795
6.71652733333394,-1.79856742814183,-27.2445376610756,1.32214579850435,27.3358326500555
6.7265143333334,-4.15342930555344,-37.6041034269333,4.53454409748316,38.1035649213003
6.73650233333501,-5.34664779961109,-31.9484776425362,3.64993609070778,32.5977591229055
6.74648933333447,-1.48253799363971,-12.4036167025566,1.59743914335966,12.5936268812151
6.75647633333392,-1.06942314460874,-0.729110954403877,0.504671721160412,1.38923079155178
6.76646433333372,-1.16113540649414,4.83054214060307,-0.1453617811203,4.97026184941667
6.77645133333499,0.169535778611898,5.24905426204205,0.741042490303516,5.30381532470038
6.78643933333478,0.894846627563238,0.684747544527054,3.5906415233016,3.76328795542605
6.79642633333424,2.03327554151416,-4.63281795859337,6.26550441026688,8.05318304648905
6.80641433333403,3.24819290667772,-10.5625927877426,7.10951198279858,13.1401782405042
6.81640133333349,4.55496754467487,-18.0587793874741,5.22964793801308,19.3446752325818
6.82638933333328,6.19767144620419,-22.4107450532913,1.62028421491385,23.308323537651
6.83637633333456,5.85318507492542,-17.0356745231152,-2.77186439394951,18.2251807726917
6.84636433333435,3.93322959601879,-7.66195808708668,-4.27866350859404,9.61680082995615
6.85635133333381,2.30754825487733,-1.95608951747417,-2.41645396202803,3.87173280322399
6.8663393333336,0.122940194159746,0.741597683429718,-0.49999511808157,0.902815891261205
6.87632633333487,-1.79171551465988,1.00565560340881,0.442551779150963,2.10177062387173
6.88631333333433,-3.08385924965143,0.699075561761856,1.07148121833801,3.33870731181463
6.89630133333412,-3.62761434495449,0.213490029573441,1.89536296695471,4.09848320784046
6.90628833333358,-3.87609206646681,-0.164953461885452,2.44330993115902,4.58487325582891
6.91627633333337,-4.55047688305378,-0.416335787773132,2.42829281955957,5.17462862135169
6.92626333333465,-4.54724191099405,-0.38077243745327,2.17716484755278,5.05593150859903
6.93625133333444,-4.47102228552103,0.0367240226268768,1.74136864900589,4.79830737898316
6.9462383333339,-3.99297849208117,0.752883394360542,0.952547390162945,4.17349459976084
6.95622633333369,-3.02182613879442,1.90923928678036,0.108788616657257,3.57609603204402
6.96621333333496,-2.16683047860861,3.06138752281666,-0.897031585872173,3.8564120052112
6.97620133333476,-0.961565550863743,3.80497969150543,-1.62474593281746,4.2476202875944
6.98618833333421,0.544729533791542,4.4298809838295,-2.1884321397543,4.97089640066945
6.99617533333367,1.82045165598393,4.94303789198399,-2.42145742446184,5.79751014590276
7.00616333333346,2.96431146383286,5.3632655864954,-2.33637663602829,6.55823268810093
7.01615033333474,3.6007566216588,5.67330834925175,-1.91731546103954,6.98770165728693
7.02613833333453,3.51780743569136,5.47039067029953,-1.12432221382856,6.6003214831411
7.03612533333398,2.98502025514841,4.88827462434769,-0.670080973505974,5.7666787007551
7.04611333333378,1.99656335949898,4.19031237244606,-0.263273223638535,4.6491177461378
7.05610033333323,0.915502063035965,3.43904865682125,0.0890576259791851,3.55993412188375
7.06608833333485,-0.168803542759269,2.58392611205578,0.356968714892864,2.61392338296746
7.0760753333343,-1.05639510959387,1.60615821897984,0.568349069058895,2.00467840719414
7.0860633333341,-1.45984421879053,0.540424813628197,0.917392906397581,1.80687959394914
7.09605033333355,-1.59407494783402,-0.739019061326981,1.19491944909096,2.12486625511642
7.10603833333335,-1.51554304093123,-2.00085053801537,1.19224142432213,2.77879707756092
7.11602533333462,-1.38674291342497,-2.79162272036076,1.14870407983661,3.32200758334505
7.12601233333407,-1.15220612347126,-3.15171706438065,0.91122190117836,3.47724384506752
7.13600033333387,-0.80767882168293,-3.04550999343395,0.612989344596863,3.20986481579684
7.14598733333332,-0.472565829455853,-2.14630587458611,0.371693319529295,2.22892424596145
7.15597533333494,-0.128848951756954,-1.04120375096798,0.154239023923874,1.06042301931807
7.16596233333439,-0.0722841569781303,-0.346665043830872,0.051106418967247,0.357789767914001
7.17595033333419,-0.299371594190598,0.0154904437065125,0.302544293403625,0.42590650937212
7.18593733333364,-0.475295309722424,0.356866096258163,0.963503025770187,1.13207646507247
7.19592533333343,-0.59545822262764,0.691821506023407,1.88893249154091,2.09791645417312
7.20591233333471,-0.820072872340679,0.940215904712677,2.59413359642029,2.8785507776484
7.2159003333345,-1.14295319706202,1.25579598069191,3.00496364593506,3.45154633015226
7.22588733333396,-1.44695432424545,1.57537087440491,3.07612192153931,3.74673141345234
7.23587433333341,-1.6544378015399,1.91386677324772,2.67406386494637,3.68112320069808
7.24586233333503,-1.76534866511822,2.19906062364578,1.98758028209209,3.45004332054908
7.25584933333448,-1.82581209093332,2.36406378686428,1.20276334270835,3.2200973647274
7.26583733333428,-1.76666925877333,2.364536241889,0.522716374844313,2.99756306316175
7.27582433333373,-1.57901807516813,2.08532467782497,0.0327164871990681,2.61590280060024
7.28581233333352,-1.28706805944443,1.55655628859997,-0.294089950472116,2.04105378865694
7.2957993333348,-1.05201123274863,0.817415605187416,-0.457813742905855,1.40871903821403
7.30578733333459,-0.965157422348857,-0.0588370227813721,-0.408832494467497,1.04982601115489
7.31577433333405,-0.983250242471695,-0.868805029392243,-0.365984244346619,1.3621848940316
7.32576233333384,-1.21083045378327,-1.48183062672615,-0.305065539702773,1.93778156086458
7.3357493333333,-1.59897886142135,-1.81358293175697,-0.147051553353667,2.42228004346654
7.34573633333457,-1.90592186897993,-1.94630244791508,-0.0656444243341684,2.72487441542951
7.35572433333437,-2.20942086651921,-1.89626256108284,-0.200977061167359,2.91851743957278
7.36571133333382,-2.52713035225868,-1.84017022132874,-0.496308740973473,3.16527038768236
7.37569933333361,-2.76709569722414,-1.7904852604866,-0.88250505566597,3.41196002891185
7.38568633333489,-2.89287252187729,-1.66995309591293,-1.34919823408127,3.60247007554953
7.39567433333468,-2.98764068484306,-1.54834328949451,-1.67968403220177,3.76094432980413
7.40566133333414,-2.85444520533085,-1.39948955118656,-1.79672599375248,3.65166437816271
7.41564933333393,-2.43885888442397,-1.14261435091496,-1.69662809371948,3.18310337586588
7.42563633333339,-1.66585068941116,-0.726596066951752,-1.43795955240726,2.31748312578122
7.435624333335,-0.706214865893126,-0.362592859268188,-1.20119307294488,1.43981867500442
7.44561133333446,0.625731743127108,-0.00896553575992584,-1.09364640489221,1.26003295755389
7.45559833333391,1.69802967131138,0.52140323638916,-0.534471178650856,1.8549462365199
7.4655863333337,1.90574455216527,1.07719628691673,0.309365801364183,2.21086438700082
7.47557333333498,1.71503498241305,1.6754418772459,1.30745613098145,2.73091413438262
7.48556133333477,1.41688998788595,2.15203731536865,2.40787638902664,3.52657206779367
7.49554833333423,1.06647044688463,2.37996879816055,3.53511548638344,4.39302312722846
7.50553633333402,0.900029453337192,2.45937749505043,4.40997355341911,5.12898210387704
7.51552333333348,0.79107302159071,2.1937402421236,4.59689032673836,5.1545798520793
7.52551133333327,0.526353635340929,1.72983150780201,4.67666155099869,5.0140331528033
7.53549833333454,0.542818956077099,1.39269801020622,4.83534211993218,5.06110596446065
7.545485333334,0.806336300969124,1.20938955366611,4.49527507424355,4.7244364019312
7.55547333333379,1.56243595629931,0.987015849351883,3.95277859210968,4.36346937684331
7.56546033333325,2.73704422473907,0.644182485938072,2.49917364478111,3.76194777610421
7.57544833333486,3.8664280807972,0.304442884325981,0.819469001144171,3.96402333717021
7.58543533333432,4.91476601958275,-0.0596018385887146,-0.658098274469376,4.95898888335798
7.59542333333411,5.3214036154747,-0.378050558567047,-1.67348598361015,5.59113709373681
7.60541033333357,5.19477455914021,-0.367928443551064,-2.07233084902167,5.60496290867934
7.61539833333336,4.64773479044437,-0.091060443520546,-1.99207299023867,5.05747817445806
7.62538533333463,3.60883016467094,0.275489226579666,-1.52579174816608,3.92779708362997
7.63537333333443,2.51441265821457,0.466895492076874,-1.13269630372524,2.79700971267248
7.64536020833475,1.76258848696947,0.425034105777741,-0.862968338727951,2.00800560734239
7.65534720833421,0.979726271778345,0.20120502948761,-0.504502590447664,1.1202097550335
7.665335208334,-0.233649474978447,-0.00887490391731262,-0.3311167126894,0.405350611815845
7.67532220833346,-1.49650509148836,-0.0901827764511108,-0.315770695209503,1.53211342725404
7.68531020833325,-2.20899840518832,-0.117395718097687,-0.431028963625431,2.25371730175642
7.69529720833452,-2.20874945998192,0.104899633526802,-0.724052966684103,2.3267640208342
7.70528520833432,-1.7684313172102,0.50163789331913,-1.12198829770088,2.15356626085226
7.71527220833377,-1.20684806138277,0.748472839593887,-1.61645925879478,2.15165851617223
7.72526020833357,-0.653791800141335,0.95835221350193,-2.01863367497921,2.32825355080072
7.73524720833484,-0.257858848124742,1.2679453253746,-2.168620749861,2.52529057544339
7.74523520833463,-0.140143433511257,1.75670414149761,-2.13484240829945,2.76824885640453
7.75522220833409,-0.307373216450214,2.25489042341709,-2.19128616571426,3.15923157996684
7.76520920833354,-0.609310861229897,2.7487018185854,-2.47540120482445,3.7488975096625
7.77519720833334,-0.831728565841913,3.32975601017475,-2.85614762216806,4.46504498680009
7.78518420833461,-0.899132344275713,3.81815171420574,-3.23567635685205,5.08491130419267
7.79517220833441,-0.825630066096783,4.36902433276176,-3.52755912959576,5.67571246973468
7.80515920833386,-0.689442273974419,5.02474863767624,-3.53204803705215,6.1805171997994
7.81514720833366,-0.571018030643463,5.80374745130539,-3.22167081356049,6.6624851895371
7.82513420833493,-0.677250829339027,6.62277630329132,-2.48659920752049,7.10654700034545
7.83512220833472,-0.897595988363027,7.33664298176766,-1.20528568536043,7.48897338649169
7.84510920833418,-1.14623860135675,7.87684092342854,0.724059544801712,7.99266839601502
7.85509620833363,-1.46205607429147,8.36606400847435,3.18488773405552,9.07039937581581
7.86508420833343,-1.85882576286793,8.32108079373837,6.07211243033409,10.4673859276918
7.8750712083347,-1.94987553521991,7.52394859492779,8.38686021566391,11.4346509058673
7.8850592083345,-1.14235356509686,6.07917235851288,8.52587952196598,10.5333721976998
7.89504620833395,0.677220569998026,3.87281382501125,6.50486719965935,7.60069811983286
7.90503420833375,2.78259929716587,1.41139038920403,3.22046833366156,4.4840046796856
7.91502120833502,3.99363133370876,-1.45448319911957,0.601016293466091,4.29253225859903
7.92500920833481,3.7975133818388,-4.55895593047142,0.796060988903046,5.98655996038448
7.93499620833427,3.5434360742569,-6.18302300155163,2.18902709394693,7.45503536330281
7.94498320833372,4.33397875338793,-5.67782298445702,2.39323349922895,7.5331674785231
7.95497120833352,5.8356422585249,-4.16560496270657,1.35702005445957,7.29715620656517
7.96495820833479,7.16664688110352,-3.4004196113348,-0.355868853628635,7.94042339504412
7.97494620833459,8.06140302300453,-4.50669644057751,-0.534402766227722,9.25106036210836
7.98493320833404,8.11372507810593,-6.23506497502327,1.48980769068003,10.3406042783319
7.99492120833384,6.63287327528,-8.17785266160965,4.12304366469383,11.3080401087851
8.00490820833329,4.87714971184731,-10.1767981767654,5.89436526060104,12.7317458452393
8.0148962083349,3.66455588400364,-12.0107188940048,7.08404911279678,14.4177005798535
8.02488320833436,3.69127356648445,-13.423920750618,8.24163175106049,16.1787404572045
8.03487020833381,3.28513766169548,-14.6297511041164,9.24619100153446,17.6157257829913
8.04485820833361,2.59978405326605,-15.4811279225349,9.72846876382828,18.4680075635216
8.05484520833488,2.53939751833677,-16.0597613668442,9.72337700843811,18.9448815083214
8.06483320833468,2.75142165094614,-16.3112664842606,9.00113594770432,18.832105133811
8.07482020833413,3.22337527692318,-16.1401664292812,7.23665968716145,17.9795540536623
8.08480820833393,3.98571274191141,-15.9873237204552,4.37116499841213,17.0466275036151
8.09479520833338,5.03401530504227,-15.8588791036606,2.00944419085979,16.759571070648
8.10478320833499,5.91425047159195,-15.5805118775368,0.680485801398754,16.6791417624737
8.11477020833445,6.1872195482254,-14.9204126858711,-0.157219934463501,16.1531767328423
8.1247572083339,6.06477885246277,-13.3947337889671,-1.6540273270011,14.796494253878
8.1347452083337,5.60918661296368,-10.2259896326065,-3.25971601456404,12.1103091174764
8.14473220833497,2.6810068488121,-6.35656368434429,-4.02106588482857,7.98515312606053
8.15472020833477,1.65551339685917,-2.03424164772034,-3.38001545995474,4.27824358797313
8.16470720833422,1.7996346911788,2.11114013493061,-2.58585452377796,3.79239255736428
8.17469520833402,1.26812468871474,5.43364150464535,-3.40984415352345,6.53908536252972
8.18468220833347,0.385189095251262,8.3163036185503,-3.98113232553005,9.22814667787599
8.19467020833326,-0.411858720928431,11.0961629104614,-2.35415684938431,11.350617314182
8.20465720833454,-0.7714604370296,13.8023046004772,0.116464256644249,13.824338226958
8.21464420833399,-0.968002896755934,16.3575647377968,2.29356624662876,16.5459179221648
8.22463220833379,-0.151667272299528,18.6322895014286,4.30307007908821,19.1233267799323
8.23461920833324,0.537804968655109,19.9907392001152,4.75629361152649,20.5558073757851
8.24460720833486,-0.174795056730509,19.8126727724075,2.79295413136482,20.0093265373491
8.25459420833431,-1.92054341644049,18.1190969252586,0.341900732517242,18.2238046662119
8.2645822083341,-3.80606435000896,15.1279034721851,-0.828592704087496,15.6213365359507
8.27456920833356,-5.33936392307282,12.5311129009724,-1.12055397570133,13.6672323040324
8.28455720833335,-6.67125381410122,10.9627107381821,-1.17511098280549,12.8867195206198
8.29454420833463,-7.00143555700779,9.58605280995369,-0.633653550893068,11.88755757743
8.30453120833408,-5.93823458075523,8.82017105519772,-0.311866655498743,10.6374483871762
8.31451920833388,-4.59901081949472,8.51797291696072,-0.865309417694807,9.71882315510768
8.32450620833333,-3.30517665445805,8.46341664075852,-1.98556299269199,9.3003265722334
8.33449420833495,-1.65569582998753,8.51768757283688,-2.66506119936705,9.07716263301862
8.3444812083344,-0.0784851291775703,8.43809293448925,-1.95578093066812,8.66213895844118
8.35446920833419,0.915333005413413,8.10522264182568,-0.966762556135654,8.21383579238766
8.36445620833365,1.40527770996094,7.59862923324108,-0.295264071375132,7.7331204916401
8.37444420833344,1.60228780075908,7.38637121200562,-0.724324862211943,7.59278949952025
8.38443120833472,1.42741936147213,7.34096407413483,-2.3141794359684,7.82832715419474
8.39441820833417,1.09664778068662,7.64291136682034,-2.65327467441559,8.16434914820842
8.40440620833397,0.919846617355943,8.05250589966774,-2.81134011626244,8.57861307630502
8.41439320833342,0.932975663021207,8.46084328114987,-3.27180074751377,9.11926492363284
8.42438120833322,1.09780721046031,9.26138440668583,-3.40738832294941,9.92918511173571
8.43436820833449,1.32292654797435,10.2775831246376,-3.22275781095028,10.8519591523011
8.44435620833428,1.60554484605789,11.1482826519012,-3.03531098753214,11.6651229367898
8.45434320833374,1.80737815886736,11.7570584928989,-2.86545083463192,12.2354341443322
8.46433120833353,1.71876214385033,12.0188161182404,-2.29379852727056,12.3558729305102
8.47431820833481,1.35340881407261,12.0005634498596,-1.35875331535935,12.1528370804564
8.48430520833426,0.861239536330104,11.7196304655075,-0.793765079677105,11.7780106464846
8.49429320833406,0.434788723289967,11.2437817168236,-0.201523118019104,11.2539895191249
8.50428020833351,0.0571484930813313,10.1421896767616,1.08382761418819,10.2000960626334
8.51426820833331,0.902172750234604,8.46939424932003,2.85398795306683,8.98275023909335
8.52425520833458,4.6687520223856,5.67691432714462,4.7649480754137,8.75952806295284
8.53424320833437,7.80480205714703,-0.095380951166153,5.71284780621529,9.67267608958713
8.54423020833383,6.24267044842243,-10.0282753908634,4.78570773750544,12.7452045959028
8.55421820833362,0.939698426127434,-25.0172887802124,3.42075768917799,25.2675553667678
8.5642052083349,-5.86138287127018,-43.218178896904,5.81872450947762,44.00027671783
8.57419220833435,-6.4457202744484,-44.9379666423798,6.51389763951302,45.8628282846373
8.58418020833415,-2.69938757121563,-21.1749009418488,0.910697113573551,21.3656849267561
8.5941672083336,-0.926658404320479,-5.55528873324394,-1.98947273343802,5.97310057383083
8.6041552083334,1.36671152204275,-0.660133105516434,-0.492549858391285,1.59570719885713
8.61414220833467,4.68040084540844,-2.63747374355793,4.68264529913664,7.12668133279326
8.62413020833446,5.9868892621994,-8.50211526811123,7.35352155447006,12.7358975467827
8.63411720833392,5.50721760392189,-13.3523508310318,5.87744283378124,15.5935580518453
8.64410758333361,4.7706888717413,-16.1316540527344,3.53057980120182,17.1887965989685
8.6540955833334,3.85320050954819,-15.9527222371101,3.01312372773886,16.6857848343982
8.66408258333468,3.09408602982759,-13.0212732946873,3.90222882807255,13.9411016925331
8.67407058333447,3.1412645816803,-9.79511298894882,4.29553915768862,11.1473511783575
8.68405758333392,2.97750921428204,-7.31627303659916,3.67572903603315,8.71231290838085
8.69404558333372,1.15547033160925,-5.58668477296829,2.23958358228207,6.12877582081221
8.70403258333499,-0.687087746411562,-4.40108987867832,0.79935472548008,4.52555517794458
8.71402058333479,-1.60537732332945,-3.54921019971371,0.0541615891456604,3.89577500245471
8.72400758333424,-1.58767692446709,-2.35652614116669,-0.0514590060710907,2.84193270500782
8.7339945833337,-1.05288692638278,-1.1583533012867,0.556391805410385,1.66130222761465
8.74398258333349,-0.497328056842089,0.0287361413240433,1.11186530560255,1.21836177703635
8.75396958333477,-0.359934568852186,1.23000742077827,1.27446994096041,1.80741383734773
8.76395758333456,-0.508285519704223,2.27468207895756,1.11974267452955,2.58579898426662
8.77394458333401,-0.6121743889153,3.32614827811718,0.925667739808559,3.50640565465378
8.78393258333381,-0.723556464985013,4.51896331429482,0.768810625076294,4.64065008066695
8.79391958333326,-0.702206745743752,5.67839425742626,0.214672921299934,5.72567376993128
8.80390758333488,-0.77814512014389,6.63168278217316,-0.579201793670654,6.70225343217988
8.81389458333433,-1.05520235069096,7.17256543278694,-1.28067617565393,7.36201591654089
8.82388158333379,-0.966640934050083,7.36343375444412,-1.93356516569853,7.6741921790812
8.83386958333358,-0.602050921730697,7.19054269731045,-2.43626944497228,7.61588986282673
8.84385658333486,-0.246070441100746,6.67357048094273,-2.71864713013172,7.21027987281126
8.85384458333465,0.341750605255365,5.9975545835495,-2.72977730512619,6.59841940122254
8.8638315833341,1.2549750316143,5.4821248626709,-2.21193356126547,6.04328597861646
8.8738195833339,1.90126470789313,5.23579862415791,-1.52345578551292,5.77488634110028
8.88380658333335,1.88802032589912,4.81870211362839,-1.01884692192078,5.2747094575154
8.89379358333463,1.59828245803714,4.23425946056843,-0.650134366750717,4.57232267998583
8.90378158333442,1.09569687724113,3.55114387392998,-0.504938938915729,3.75048500759298
8.91376858333388,0.582842233590782,2.92863116919994,-0.413906562030315,3.0146151058731
8.92375658333367,0.0204890090972185,2.26533121168613,-0.322251749038696,2.28822889761747
8.93374358333494,-0.315920676290989,1.67281296908855,-0.253330033421516,1.72112905067934
8.94373158333474,-0.66385113067925,1.05102590382099,-0.245508797764778,1.26713390925614
8.95371858333419,-0.695990643873811,0.385676497220993,-0.309632580578327,0.853827659322495
8.96370658333399,-0.422272465825081,-0.227092992067337,-0.431237416863441,0.644865080573559
8.97369358333344,-0.151004928946495,-0.83967887878418,-0.543305152058601,1.01145617616178
8.98368058333472,0.278360794186592,-1.26125026345253,-0.561941982507706,1.40855093997482
8.99366858333451,0.756933541372418,-1.54422392606735,-0.574083287268877,1.81304923833163
9.00365558333397,1.39811355516315,-1.87308478295803,-0.289683927297592,2.3552250200383
9.01364358333376,2.4730330824852,-2.77604456841946,0.295349586904049,3.72955056962656
9.02363058333503,3.34408110380173,-4.40460113167763,1.05164132326841,5.62932847067795
9.03361858333483,3.57951164066792,-5.94940217792988,2.27236702010036,7.30561029171921
9.04360558333428,2.75020630717278,-6.09916749715805,3.24046668827534,7.43398300026468
9.05359258333374,0.95543445289135,-3.4964273840189,2.98428964555264,4.69508723391182
9.06358058333353,1.04534094840288,-0.0945021146535873,2.19097041606903,2.42940727589499
9.07356758333481,0.921521333009005,1.68926177144051,1.99122134327889,2.76907373277968
9.0835555833346,0.339267877489328,2.68067355751991,2.10313880503178,3.42407743018657
9.09354258333406,-0.570502890944481,3.41092647314072,3.0257618996501,4.59512002314655
9.10353058333385,-1.58642459705472,3.81078363776207,4.50726449757814,6.11181218519546
9.11351758333331,-2.11434601709247,3.72379753410816,5.75466943144798,7.17309887149666
9.12350458333458,-1.84329204976559,3.2327144497633,6.04605840682983,7.09950635982778
9.13349258333437,-1.1601938585937,2.44409404277802,5.68399881362915,6.29503677453906
9.14347958333383,-0.474508859217167,1.49799525439739,4.63343893289566,4.89263781456853
9.15346758333362,0.134202223867178,0.541407145857811,3.35678739577532,3.40281553348295
9.1634545833349,0.603271126002073,-0.18046787917614,2.13842938274145,2.22921172880777
9.17344258333469,0.952646208107471,-0.529951865673065,0.96055661380291,1.4529462433526
9.18342958333415,1.39843325167894,-0.531376247406006,-0.0585066550970078,1.49713035651518
9.1934165833336,2.03898578613996,-0.368330731987953,-1.00331203937531,2.3021219803831
9.2034045833334,2.86482079714537,-0.207365655899048,-1.80738035157323,3.39364442012654
9.21339158333467,3.64483907282352,-0.0960393476486206,-2.2516346937418,4.28531611636056
9.22337958333446,4.08546945691109,0.0133141100406647,-2.18713668912649,4.6340915879817
9.23336658333392,4.0250864303112,0.268907600641251,-1.75943186759949,4.40104903016118
9.24335458333371,3.6277403524518,0.565677768588066,-1.10738195300102,3.83494278868854
9.25334158333499,2.95396569281816,0.877452476620674,-0.286199132949114,3.09479338676676
9.26332958333478,2.16137795001268,1.15888364374638,0.566568884253502,2.51705507352306
9.27331658333424,1.39596207216382,1.42064711630344,1.32841927617788,2.39408565203966
9.28330358333369,0.695224731713533,1.62180361390114,1.81505277559161,2.53140296433258
9.29329158333348,0.237105398699641,1.60574715971947,1.66315687716007,2.32394787142149
9.30327858333476,0.0366311615332961,1.23449866712093,1.47242289528251,1.92181112070639
9.31326658333455,0.105485159084201,0.969935547709465,1.26978807538748,1.60133189623317
9.32325358333401,-0.0703846889734268,0.711431897878647,0.950165673047304,1.18907701853098
9.3332415833338,-0.583284611999989,0.27328073322773,1.31788230121136,1.46687322478652
9.34322858333326,-1.50725198149681,-0.186129738092423,2.96945701360703,3.33528526078181
9.35321558333453,-1.87558402910829,-0.407380192279816,5.97659640848637,6.2772190260688
9.36320358333433,1.34998249188066,-0.252454705238342,6.30557420969009,6.45340624945386
9.37319058333378,2.24663254693151,-0.394575374722481,3.33536904484034,4.0407591109281
9.38317858333357,0.0797000344097614,-1.14887730360031,-0.107931561022997,1.15668508077078
9.39316558333485,-1.3546792678535,-1.98789193868637,-2.63560263454914,3.56837099050655
9.40315358333464,-1.85956631273031,-2.76573241889477,-3.88126451343298,5.11580657449058
9.4131405833341,-1.58733661651611,-3.53162762224674,-3.41673041939735,5.16392079288444
9.42312758333355,-1.03455488204956,-3.9373144608736,-2.46317087620497,4.75814666999256
9.43311558333335,-0.40577688574791,-3.97736847281456,-1.46078562051058,4.25652551720731
9.44310258333462,0.128491102159023,-3.82613784134388,-0.668949829638004,3.88630089144811
9.45309058333442,0.526059374213219,-3.29800796806812,-0.285575965940952,3.35188732730704
9.46307758333387,0.75096843123436,-2.49344746649265,0.369103149175644,2.63010855053562
9.47306558333366,0.651012618541718,-1.44985629737377,0.812736663222313,1.78506067019602
9.48305258333494,0.341832612454891,-0.17772845864296,0.932233285903931,1.00870998770538
9.49303958333439,-0.27315589517355,0.887862274646759,0.520097845494747,1.06461980570402
9.50302758333419,-0.855036005973816,1.51269632399082,-0.440775395035744,1.79265715879973
9.51301458333364,-1.25006717115641,1.70185141146183,-1.38305741339922,2.52424522736127
9.52300258333344,-1.23431067913771,1.61555235564709,-1.94259911388159,2.81197858877406
9.53298958333471,-1.02711693137884,1.52774179458618,-2.1468005490303,2.82802347567472
9.54297758333451,-0.695938530564308,1.39695887625217,-2.21940513342619,2.7132238548528
9.55296458333396,-0.125606085956097,1.19456861615181,-2.31211215287447,2.60550065726222
9.56295158333342,0.580147288441658,0.906504952311516,-2.57454045385122,2.79044452612267
9.57293958333503,1.25101763606071,0.638146405220032,-2.62333225250244,2.9755920532307
9.58292658333448,1.85839014530182,0.528799379467964,-2.21831316590309,2.94179469336315
9.59291458333428,2.31101287633181,0.628466339707375,-1.44698896899819,2.79812929135146
9.60290158333373,2.64536105275154,0.850993241071701,-0.307234929800034,2.79580362290589
9.61288958333353,2.58383577257395,1.11675387024879,1.32677562385798,3.11186118945113
9.6228765833348,1.88539492607117,1.38025162696838,3.14369059145451,3.91696299648125
9.63286358333426,0.827181624770165,1.55763860821724,4.30985752701759,4.65675202016991
9.64285158333405,-0.374501006305218,1.62874776721001,3.98719442635775,4.32328459466798
9.65283525000086,-1.62914420843124,1.54784978449345,2.44274435922503,3.31917908702547
9.66282325000066,-2.562211599648,1.12605094313622,0.513179127573967,2.84539484516408
9.67281025000011,-2.74755517959595,0.431346759796143,-1.19673530191183,3.02775409750415
9.68279824999991,-2.37080664977431,-0.464035618901253,-2.26043826162815,3.30841871002684
9.69278525000118,-1.81175772339106,-1.48403151869774,-2.44261937499046,3.38396291466592
9.70277225000064,-1.24812121778727,-2.30750776290894,-2.2063807529211,3.42790237273999
9.71276025000043,-0.927234647423029,-3.0680966180563,-1.78403709724546,3.66821064191496
9.72274724999988,-1.02856528669596,-3.84775265872479,-1.54970335185528,4.27372525444384
9.7327352500015,-0.988459234535694,-4.32743893504143,-1.72093555390835,4.76081910762814
9.74272225000095,-0.823072786331177,-4.23493013620377,-1.98249028086662,4.74787845083006
9.75271025000075,-0.46950744330883,-3.5030850237608,-1.52490998804569,3.84933661747853
9.7626972500002,-0.29272287145257,-2.87152024447918,-1.40249808982015,3.2090989523345
9.77268425000148,0.36373204305768,-1.98659970402718,-0.904267369061708,2.21282146996489
9.78267225000127,1.28510909602046,-0.570701696276665,-0.466150118261576,1.48138507740657
9.79265925000072,1.73974049180746,0.802287104129791,-1.22620556116104,2.27463000387089
9.80264725000052,1.6913145826757,2.05802812099457,-2.69289043754339,3.7878336385048
9.81263424999997,1.08154091432691,2.93867785513401,-3.75503160595894,4.8893578972467
9.82262225000159,0.571057937890291,3.48948732376099,-3.5053680691123,4.97897923786274
9.83260925000104,0.517112549543381,4.03822629332542,-2.07749934911728,4.57063239941507
9.8425962500005,0.555094600617886,4.53382342815399,0.606469699144363,4.60776414210769
9.85258425000029,0.169488562345505,5.12987514317036,3.9353123742342,6.46769115218745
9.86257125000157,-1.29869232416153,5.84821552634239,5.50583181381226,8.13648637664781
9.87255925000136,-3.80861285895109,6.06877717852592,7.22219309091568,10.1732817416228
9.88254625000081,-5.97381839632988,5.58649941623211,7.36989785134792,11.0095811137025
9.89253425000061,-6.86942647755146,5.08901421546936,5.19156268358231,10.0019702515704
9.90252125000006,-7.04607261657715,4.5480537968874,3.08210216134787,8.93483555475116
9.91250825000134,-6.89533958315849,3.8151474148035,2.94495922654867,8.4127190972829
9.92249625000113,-5.35451171994209,2.95465537190437,3.54789925396442,7.07024562812367
9.93248325000059,-1.71306666344404,2.76511495292187,1.19101526319981,3.46395373142459
9.94247125000038,2.50950859844685,3.19190029978752,-3.61693820625544,5.43765601314874
9.95245825000166,4.76542754709721,3.63931169986725,-6.1946595454216,8.6213511840724
9.96244625000145,4.81177959501743,4.15558283507824,-4.10794761568308,7.56949966532923
9.9724332500009,4.59899707853794,4.55082537710667,-1.0603013420105,6.55629656720834
9.98242025000036,4.59677338242531,4.56506334722042,0.0769405871629715,6.47889255563496
9.99240825000015,4.42416766941547,4.38922763228416,0.574971917867661,6.25852790050859
10.0023952500014,3.82801567465067,3.96936831235886,1.25751096904278,5.65605185989244
10.0123832500012,3.00346295803785,3.12252191662788,1.86623944759369,4.71739149699087
10.0223702500007,1.39566254854202,2.31962202429771,1.48664054632187,3.08846570306002
10.0323582500005,-0.790323408544064,1.84706525802612,0.049700163602829,2.00965948950611
10.0423452499999,-1.75346419930458,1.56093936145306,-0.242742480039597,2.36010429854108
10.0523322500012,-1.63589745014906,0.949883106350899,1.01364816248417,2.14614095073985
10.062320250001,-1.500599604249,-0.576995054483414,2.84169418215752,3.2649576245456
10.0723072500005,-1.53386090576649,-2.72500831604004,4.17523357272148,5.21641399694337
10.0822952500002,-1.43388170421124,-4.35428701043129,4.33161852478981,6.30703980922783
10.0922822500015,-0.927658132016659,-5.03661848545075,3.89527473449707,6.43437958431829
10.1022702500013,0.186707442998886,-5.29175706267357,4.14442254692316,6.72412007083989
10.1122572500008,1.58630926072598,-5.81597982645035,4.91679851174355,7.77926127710247
10.1222442500002,2.46726802021265,-6.61759216189385,5.15917846441269,8.7462597681742
10.13223225,2.85464751899242,-7.16382384538651,4.87266021966934,9.12207225150985
10.1422192500013,2.95124936878681,-7.71307210743427,4.71036724090576,9.5073084369575
10.1522072500011,2.5302779084444,-8.41840243577957,4.90354579746723,10.0656131086268
10.1621942500005,1.54026097565889,-9.29394988954067,5.29134951174259,10.8050121738871
10.1721822500003,0.792916648685932,-10.2617675757408,5.98924218177795,11.9081322004031
10.1821692500016,0.479745625555515,-11.5796071922779,6.83532434642315,13.4550777594743
10.1921562500011,0.555701541602612,-13.3481104302406,7.46963907122612,15.3060891188973
10.2021442500009,0.966076970100403,-15.5691285181046,7.6536883699894,17.3755579245769
10.2121312500003,1.62682695686817,-17.9851535868645,7.21772464871407,19.4475670610838
10.2221192500001,2.7096310159564,-19.9401420736313,6.12279843449593,21.0342584092879
10.2321062500014,4.11764960825443,-20.9317783927917,4.55383435428143,21.8135689951813
10.2420932500008,5.15016030371189,-20.5888321781158,2.25064095944166,21.3422010659834
10.2520812500006,5.78498607516289,-18.7918763887882,-0.620075000524521,19.6719387734814
10.2620682500001,5.67837613105774,-15.749281232357,-2.40582401633263,16.913657322389
10.2720562500017,5.22714766860008,-12.2274400949478,-2.79845402240753,13.5891393745306
10.2820432500012,5.10394449591637,-8.50320226550102,-2.3157862508297,10.1841820557642
10.2920312500009,4.8183536195755,-4.45133324861527,-2.00409106492996,6.8591020031806
10.3020182500004,4.01615656256676,-0.328843899965286,-1.2816289794445,4.22850147056193
10.3120052500017,3.34282658368349,3.29009200751781,0.344344283938408,4.70295311186436
10.3219932500015,2.78709902197123,6.50601559281349,1.2465424695611,7.18679539020172
10.3319802500009,1.86062553584576,9.32903727650642,-0.728488518297672,9.54062678299383
10.3419682500007,1.07196829140186,11.9293619048595,-2.99089875340462,12.3452123038854
10.3519552500002,0.454102076590061,14.2045509374142,-2.77908629000187,14.4809805136542
10.36194325,-0.430052770972252,15.6934882700443,-1.0396000058949,15.7337626663204
10.3719302500012,-0.734134297370911,16.6257519614697,-0.240039896965027,16.6436835046519
10.3819172500007,-0.133131178412586,17.372777030468,0.123008021861315,17.3737225900054
10.3919052500005,0.926627560257912,17.923152050972,0.585458460599184,17.9566360905036
10.4018922499999,0.826541647017002,17.8139190459251,0.954864203184843,17.8586295251218
10.4118802500016,0.13855125496164,16.7933974814415,2.00529486045241,16.9132670675211
10.421867250001,-0.512697024643421,15.0256976509094,3.33120202660561,15.39906994197
10.4318542500005,-1.97979325264692,12.5746711492538,3.5094935721159,13.204487152776
10.4418422500003,-3.72079966664314,9.62983968436718,0.970968604534864,10.3692305662907
10.4518292500015,-4.58689801990986,6.74867621183395,-3.78817742496729,8.99636327969576
10.4618172500013,-4.65344430416822,5.45927862167358,-6.85424652099609,9.92164111080647
10.4718042500008,-4.0385262554884,6.22536269009113,-6.39728427886963,9.79745278550095
10.4817922500006,-3.89645499497652,7.20476955771446,-4.48467875003815,9.33827657540139
10.49177925,-3.61567579239607,7.79987811684609,-1.89898853302002,8.80439478453317
10.5017662500013,-2.63849671393633,7.95666009485722,0.520176490545273,8.39885041870982
10.5117542500011,-1.22396373867989,7.76944394409657,1.48765430733562,8.0047149713276
10.5217412500006,0.0435500256344676,6.90713107824326,-0.293902254849672,6.91351827018432
10.5317292500004,1.12863950550556,5.86150273919106,-3.39837425529957,6.86876910909189
10.5417162500016,2.60137712717056,5.86398137390614,-6.17581513881683,8.90472532648388
10.5517042500014,3.35680084437132,6.97450094282627,-7.7477981364727,10.9517191013003
10.5616912500009,2.68982942014933,8.28495844960213,-7.11352141857147,11.246239629032
10.5716782500003,1.80459049880505,9.34921835660935,-6.04333594322205,11.2776921429244
10.5816662500001,1.48874291270971,10.1084722924233,-5.47918488264084,11.5939223097704
10.5916532500014,1.56685469716787,10.6558488607407,-4.8790477180481,11.8240118073341
10.6016412500012,1.84803209513426,10.9298376917839,-3.80665550351143,11.7203754511449
10.6116282500006,1.96848444521427,11.0172617518902,-1.76804847076535,11.3305332140941
10.6216152500001,1.77243549048901,10.8671894538403,0.824588238447905,11.0416158218165
10.6316032499999,1.2921934363246,10.6104557561874,2.86687580108643,11.0666396024153
10.6415902500012,0.423887174427509,10.4059949970245,3.463543227911,10.9754518770915
10.6515786250002,-0.40518463589251,10.3987678384781,2.5881168115139,10.7236605586791
10.6615656250015,-0.834750845432282,10.0535037875175,1.80588214874268,10.2484612364358
10.6715536250013,-1.98758028209209,9.20370864093304,2.26723857343197,9.68499348857833
10.6815406250007,-1.80889726549387,7.66394672513008,2.60677761554718,8.29478620940053
10.6915276250002,-0.258880210518837,4.32067896902561,4.45203666865826,6.20934104522019
10.701515625,-0.245752480477095,-0.579733890295029,5.72449312090874,5.75901963502025
10.7115026250012,-3.69618873596191,-6.54408213615418,5.22849486708641,9.15554371688175
10.721490625001,-3.02211440652609,-14.8108077979088,6.66948152303696,16.5219607461965
10.7314776250005,0.338821881115437,-32.0961479043961,10.3671870267391,33.7306400386263
10.7414646249999,4.70806636154652,-54.1914005899429,9.52321921527386,55.2228710860505
10.7514526250015,7.06738337874413,-41.2419463062286,-1.47336064249277,41.8690438693176
10.761439625001,4.13417442440987,-13.4860392308235,-3.48018820434809,14.5284673054125
10.7714276250008,0.991977211833,-0.801422300934792,-1.59647698402405,2.04329030089953
10.7814146250003,0.381241968870163,5.89605393648148,2.0437702703476,6.2518632725519
10.791402625,2.12171774804592,8.45365529894829,5.04558928370476,10.0709456028541
10.8013896250013,1.49309528768063,3.81430249214172,8.29099160671234,9.24763639327516
10.8113766250008,2.16764850407839,-5.27676304757595,8.77047615408898,10.4625130951861
10.8213646250006,2.19736990123987,-13.4705990731716,7.09276965022087,15.3815751853996
10.831351625,2.8601547190547,-19.7297498989105,4.75880265176296,20.4960903288631
10.8413396250016,5.34809264659882,-21.0110151815414,-0.423737193346024,21.6851194860576
10.8513266250011,5.32252394199371,-15.5185688138008,-4.67386687427759,17.0587300435946
10.8613136250005,2.95199284225702,-10.4044946014881,-3.21848320394754,11.283900202821
10.8713016250003,1.31713327288628,-7.55153868198395,-0.493459977507591,7.68141128136268
10.8812886250016,0.6884650580585,-5.47581981003285,2.11635029643774,5.9107973493724
10.8912766250014,0.230890027731657,-3.83985540926456,4.37542908042669,5.82599171015612
10.9012636250009,-0.354564047455788,-2.24755509138107,4.40889328032732,4.96140700909093
10.9112516250007,-1.24434070050716,-1.04366893708706,2.48141915917397,2.96564827191201
10.9212386250001,-1.99010627925396,-0.0839297640323639,0.621723915338516,2.08664990712875
10.9312256250014,-2.65677130937576,0.855985009074211,0.132851078510284,2.7944218606258
10.9412136250012,-3.28042714476585,1.7696913921833,0.391738598048687,3.74786192446913
10.9512006250006,-3.7023502394557,2.62488351881504,0.354012947380543,4.55222318761477
10.9611886250004,-2.77075839310884,3.52301701247692,-0.100782608985901,4.48318057604854
10.9711756249999,-1.20819153226912,4.41214111626148,-1.30222141116858,4.75631124004283
10.9811626250012,-0.580870589017868,5.13815187692642,-2.70955997228622,5.83778473352386
10.991150625001,-0.202825950756669,5.58333022534847,-3.42940864473581,6.55557460671289
11.0011376250004,0.37970035046339,5.82554704070091,-3.38273353815079,6.74715175979401
11.0111256250002,0.792005067765713,5.9702428239584,-3.02815633445978,6.74097931982603
11.0211126250015,1.1691077926755,6.29933756947517,-2.36393924117088,6.82910503514506
11.0310996250009,1.26773365616798,6.71007055521011,-1.74498310536146,7.0482027153648
11.0410876250007,0.946914474964142,6.81546486318111,-1.08613697201014,6.96612531082526
11.0510746250002,0.690527517199516,6.68493162095547,-0.231038985550404,6.72447158085334
11.061062625,0.442299764156342,6.20501964211464,0.558258529007435,6.24576259760254
11.0710496250013,0.368305588960648,5.512842040658,1.41420041486621,5.70324812589402
11.081037625001,0.0683975127339363,4.52671321392059,2.2604727602005,5.06019247069121
11.0910246250005,-0.715522317588329,2.98977316439152,2.94557990849018,4.2575998824201
11.101011625,-1.33470620244741,1.06236131608486,2.67190273404121,3.17003413750421
11.1109996250016,-1.13758311420679,-1.06195025682449,2.33323200345039,2.80460429858174
11.120986625001,-0.32096273034811,-3.3726552772522,2.03856274008751,3.9539295313299
11.1309746250008,0.377022033333778,-4.72802875578403,1.76027255102992,5.05914627017734
11.1409616250003,0.53847038179636,-4.79415374815464,1.72244939804077,5.12256697777863
11.1509486250015,0.506153697967529,-3.604690335989,1.82238065242767,4.07075610012211
11.1609366250013,0.484688569307327,-1.90045735359192,1.80953417345881,2.66853425815635
11.1709236250008,0.756300214827061,-0.36617720246315,1.28930900484324,1.53895856621322
11.1809116250006,1.1877630418539,0.751522162556648,0.606112872809172,1.53066633169769
11.190898625,1.5558978921175,1.41452800512314,0.0518715271353722,2.10342539285345
11.2008866250017,1.79139625668526,1.70515157997608,-0.399332084655762,2.5052162726991
11.2108736250011,1.69957304388285,1.7045405459404,-0.63946465998888,2.49056661336787
11.2208606250006,1.30749823093414,1.36437526702881,-0.56543861746788,1.97250914403453
11.2308486250004,0.943819836080074,0.97358713388443,-0.542525718212128,1.4604800392902
11.2408356250016,0.696474720239639,0.798955360651016,-0.704291278123856,1.27256941212934
11.2508236250014,0.507981574125588,0.836553542017937,-0.83657064512372,1.28752380661353
11.2608106250009,0.429903082251549,0.936176648139954,-0.831409161686897,1.32381440194192
11.2707976250003,0.35874162722379,1.10603709340096,-0.62995928004384,1.32244557604287
11.2807856250001,0.295513930208981,1.3226968985796,-0.233183598071337,1.37522004016417
11.2907726250014,0.321356540322304,1.59773472011089,0.295649695247412,1.65633179168778
11.3007606250012,0.315445005297661,1.84366100907326,0.812298560589552,2.03922054208958
11.3107476250007,0.116066353619099,2.04881466329098,1.28411506935954,2.42075699613051
11.3207346250001,-0.229735056459904,2.17086418032646,1.5549640917778,2.68017589204692
11.3307226249999,-0.699153329730034,2.04048998236656,1.63827039644122,2.70856874353718
11.3407096250012,-1.13467967927456,1.69359163463116,1.55784077569842,2.56566141216644
11.350697625001,-1.55776052266359,1.27393345892429,1.12087937325239,2.30345281547477
11.3606846250004,-2.10707339644432,0.737157307863235,0.701389304995537,2.33989447447993
11.3706716249999,-2.48970261722803,0.540223669409752,0.631761684268713,2.62480162315796
11.3806596250015,-2.63778773903847,0.712744597792625,1.26969568938017,3.01298127467378
11.390646625001,-2.42996336907148,0.52113017141819,1.97134884998202,3.17214673666226
11.4006346250007,-2.05083078324795,0.313418945074081,2.05961680948734,2.92338155884099
11.4106216250002,-0.742953214198351,0.342750917673111,1.80382772952318,1.98072010840759
11.420609625,2.54944245010614,0.408076010942459,1.36607739150524,2.92101870529644
11.4305966250013,4.98785504579544,-0.185099458694458,0.311828210055828,5.00101955605681
11.4405836250007,5.39590942203999,-1.19104625344276,-0.77741845741868,5.58021586738678
11.4505716250005,4.93236029148102,-2.64478451728821,-1.46743302762508,5.78588133981601
11.460558625,4.53754751980305,-3.86940899133682,-1.95576061159372,6.27587946080631
11.4705466250016,4.11277215331793,-4.68673045635223,-2.32534235537052,6.65488949760153
11.480533625001,4.02004496097565,-4.94412547409535,-2.65445961266756,6.90299167224961
11.4905206250005,3.54520134866238,-4.64959771335125,-2.75167249649763,6.46211366555404
11.5005086250003,2.73565258741379,-4.12671045362949,-2.66437415152788,5.62249267375678
11.5104956250016,2.05696436628699,-3.36528778553009,-2.56360148280859,4.70407449412431
11.5204836250014,1.30947327420115,-2.47942058086395,-2.62854241400957,3.8433685608989
11.5304706250008,0.796756515204907,-1.61405605316162,-2.52141499131918,3.09798829011961
11.5404576250003,0.500682165920734,-0.889893597364426,-1.9946887421608,2.24084279323747
11.5504456250001,0.287659328877926,-0.333471386432648,-1.15219793736935,1.23349549733187
11.5604326250013,0.0802205827832222,0.0559660398960114,-0.12097129046917,0.155568610720473
11.5704206250011,-0.106339218020439,0.375459072589874,0.64524317085743,0.754066505036125
11.5804076250006,-0.363631617128849,0.589977042675018,0.626727962493897,0.934392210386545
11.5903956250004,-0.598812770247459,0.626244982481003,0.091058104634285,0.871235381692948
11.6003826250017,-0.743625790178776,0.661780850887299,-0.572657005190849,1.14842033072141
11.6103696250011,-0.799810954481363,0.749258120656014,-1.17734301120043,1.60848433635515
11.6203576250009,-0.720937424004078,1.00139473736286,-1.50130360901356,1.94331024692014
11.6303446250004,-0.584834708869457,1.36593530416489,-1.32512700140476,1.99092251524624
11.6403326250002,-0.389490635991096,1.71707697629929,-0.812934883832932,1.93930900668622
11.6503197500006,-0.159695645570755,2.09344879925251,-0.175012426972389,2.10681274058726
11.66030675,0.00678306251764298,2.56143479704857,0.309100776314735,2.58002665090629
11.6702947500016,-0.115464967489243,2.98517199039459,0.609477799236774,3.04894197365516
11.6802817500011,-0.503394689261913,3.24313477277756,0.875271757543087,3.39667926321114
11.6902697500009,-1.03343674823642,3.29261449635029,1.08335969075561,3.61703883774222
11.7002567500003,-1.58560584068298,3.19514725863934,1.10316377162933,3.7336419476744
11.7102437500016,-1.99609426662326,3.03344894170761,0.946328437775373,3.7525647649755
11.7202317500014,-2.16290553510189,2.84838515102863,0.722631216198206,3.64878804495395
11.7302187500009,-2.07518078193068,2.47046147704124,0.319047913402319,3.24212071926473
11.7402067500007,-1.72720903158188,1.96652153491974,-0.464116310477257,2.65816890654678
11.7501937500001,-1.19769497618079,1.4145016926527,-1.56230965644121,2.42406678065921
11.7601807500014,-0.636086723506451,0.964423377513885,-2.77714092135429,3.00786144427848
11.7701687500012,-0.28931145966053,0.702585645318031,-3.92906813263893,4.00186257892705
11.7801557500006,-0.191523794531822,0.640265436172485,-5.02284127593041,5.06710525604306
11.7901437500004,-0.309059845805168,0.703269184827805,-5.66116192817688,5.71304296427542
11.8001307500017,-0.200047719329596,1.20339498817921,-5.28547715306282,5.42443059897837
11.8101177500012,0.0451951763033867,2.0992164927721,-3.45849298775196,4.04597654884664
11.8201057500009,0.479210020601749,3.35755133450031,-1.05983853489161,3.55331548383916
11.8300927500004,0.496749036312103,4.94039319634438,0.91087194532156,5.04816127320995
11.8400807500002,-0.431943760514259,5.93849945962429,2.84516421228647,6.59903861475904
11.8500677500015,-1.60634138301015,6.42891830027103,4.14021342873573,7.8136221041086
11.8600547500009,-2.62375091314316,6.05436086833477,3.8335421705246,7.63121222031162
11.8700427500007,-3.19879913717508,4.56156086504459,1.79730691462755,5.85409818766874
11.8800297500002,-2.55445234447718,2.53887974739075,-0.663056128621101,3.66207326273217
11.89001775,-0.933655036389828,0.440777733922005,-1.7974188888073,2.07285103168046
11.9000047500012,1.31668522998691,-0.855160551667214,-2.12163998007774,2.63937791327004
11.9099917500007,3.14358592629433,-0.976332986354828,-1.75723506867886,3.73138495237828
11.9199797500005,3.55266853541136,-0.592463863492012,-0.563586804270744,3.64555856323745
11.92996675,3.44616120994091,-0.376133256554604,0.642641159892082,3.52569014123125
11.9399547500016,3.19723910003901,0.271166964769363,1.28446721792221,3.4562588762298
11.949941750001,2.53030509799719,1.03552259624004,2.55764317005873,3.74383353284068
11.9599287500005,1.80814706772566,1.25919555187225,4.55679860025644,5.0615593189924
11.9699167500003,1.52016234129667,1.07754127264023,6.24412582039833,6.51621792139465
11.9799037500015,1.45471240997314,-0.06321892619133,7.01202954232693,7.16161595806591
11.9898917500013,1.23793185979128,-2.60668055176735,6.62980933427811,7.23060375054045
11.9998787500008,1.1239936003089,-3.97911971390247,5.57894890666008,6.94416490402023
12.0098667500006,1.05056280434132,-3.13168157994747,4.58091924190521,5.64764843318927
12.01985375,1.15919530034065,-2.22697932422161,4.12406663507223,4.82815661151939
12.0298407500013,1.31930580586195,-3.03135037600994,4.26326135784388,5.39490966715862
12.0398287500011,1.82093171238899,-4.9230766671896,4.39542012602091,6.8463270632099
12.0498157500006,2.09371016979218,-6.988160623312,4.72556064605713,8.69188901170875
12.0598037500004,2.15446741819382,-8.81878701925278,5.49700719594955,10.6127198426851
12.0697907500016,1.58038193821907,-10.698402557373,6.38667041301727,12.5595773541455
12.0797777500011,0.799438925385475,-12.5540141057968,6.94376329958439,14.3686541305935
12.0897657500009,0.386846232712269,-14.328301409483,7.33902279853821,16.1031402815171
12.0997527500003,0.557635800540447,-16.1765419578552,7.7064325940609,17.9270904144286
12.1097397500016,1.14719856798649,-18.0454535830021,7.67833204507828,19.6446237572815
12.1197277500014,1.75362587481737,-19.9005143237114,6.94681145310402,21.1509778360729
12.1297147500009,2.2541029496491,-21.4646257996559,5.40657883644104,22.2495446142505
12.1397027500007,2.46251394152641,-22.1077563714981,3.017805300951,22.4482519481624
12.1496897500001,2.87553465038538,-21.1752190303803,0.591659286618233,21.3777609029006
12.1596767500014,3.12999933600426,-18.8960047745705,-0.253831432163715,19.1551643866591
12.1696647500012,3.13271975308657,-15.8374209916592,-0.0160421285033226,16.1442898285528
12.1796517500006,2.38438300743699,-12.440166478157,-0.135676745474339,12.6673372304395
12.1896397500004,1.77254717230797,-7.8981838452816,-0.746471630036831,8.12898833966282
12.1996267500017,1.606825093925,-2.9383919262886,-1.13860228389502,3.53729404429941
12.2096137500012,2.49212307214737,1.78464272260666,-1.74638936072588,3.52781842692317
12.2196017500009,2.7365206065774,5.8292588531971,-2.91918089926243,7.07039043691493
12.2295887500004,1.97350077152252,9.14641996085644,-3.29222594887018,9.91919629274304
12.2395767500002,1.19332900643349,12.1919077348709,-2.04678655654192,12.4199832343382
12.2495637500015,0.87881283134222,15.311680290699,-0.481379191428423,15.3444319296301
12.2595507500009,0.619239141047001,17.8832155680656,0.00324403524398804,17.8939337958839
12.2695387500007,0.393911715745926,19.4562288451195,-0.475507417470217,19.4660246228533
12.2795257500002,0.571683443784714,20.2442159986496,-0.902941074371338,20.2724050360007
12.28951375,0.699582515358925,20.3283410596848,-0.930578962415457,20.3616512871611
12.2995007500012,0.766301877200603,18.8351820373535,-0.860673745125532,18.8704016979712
12.309488750001,0.314850343465805,16.0487767875195,-0.718176076412201,16.0679228275199
12.3194757500005,-1.46422787636518,13.263784224987,-0.304311468154192,13.3478290635815
12.3294627499999,-3.65074563771486,11.1159136354923,0.279277637600899,11.7033959029797
12.3394507500016,-5.73036664903164,9.4939416217804,1.37697820946574,11.1744395134365
12.349437750001,-7.02360761404038,8.03646113991737,2.37565340682864,10.934326713556
12.3594257500008,-6.52230125784874,6.92671398818493,2.58784491598606,9.85985403956098
12.3694127500003,-4.83947317779064,6.73293960034847,1.70821610569954,8.46587140017299
12.3793997500015,-2.411571829319,7.19727810502052,-0.677034774720669,7.62068677319531
12.3893877500013,0.201225787103176,7.79843502402306,-3.39914667248726,8.50942293827178
12.3993747500008,2.1482155752182,8.20948375940323,-5.70738475263119,10.2266658529592
12.4093627500006,3.44903687059879,8.42933088183403,-7.32402585983276,11.6872079319951
12.41934975,4.23835894346237,8.0392789131403,-6.86935397207737,11.3921778414219
12.4293367500013,4.68988502919674,6.71824028491974,-5.41882758378983,9.8231087999596
12.4393247500011,4.08774577796459,5.76072071492672,-4.70063688933849,8.48478378428484
12.4493117500006,2.733895791471,5.66151276111603,-4.4047209995985,7.6764887824582
12.4592997500004,1.34309227913618,5.89551423847675,-4.30397698223591,7.42194064042376
12.4692867500016,0.549655191712081,6.38531619787216,-3.88334963053465,7.49364985368
12.4792737500011,-0.0347947338223457,6.98000024914742,-3.31709327995777,7.72817714467912
12.4892617500009,-0.562700951099396,7.63925217926502,-2.80644365787506,8.15787547242545
12.4992487500003,-0.911850184500218,8.47176120221615,-2.26839807629585,8.81747347367094
12.5092367500001,-1.03152427017689,9.38040448129177,-1.65519589304924,9.58100746252552
12.5192237500014,-0.938349546566606,10.331500300169,-1.00897185176611,10.4229757037801
12.5292107500009,-0.558115052953363,11.2601796483994,-0.135145818293095,11.2748127487228
12.5391987500007,-0.285754379108548,12.0813602757454,0.647629127204418,12.1020801998641
12.5491857500001,-0.557547580674291,12.5883910560608,0.676796208322048,12.618894634342
12.5591737499999,-1.14962808609009,12.5655448150635,0.064494788646698,12.6181900767685
12.5691607500012,-1.85961338281632,12.1055724263191,-0.82139141947031,12.2750857254191
12.5791477500006,-2.89291871488094,11.5050750732422,-1.56448160469532,11.9659238599983
12.5891357500004,-4.03914021313191,10.7132006907463,-1.9010499688983,11.6060895087792
12.5991227500017,-4.60638591259718,9.56406961798668,-1.39552923202515,10.7069006099294
12.6091107500015,-3.94775729566813,8.17816256403923,1.50881903529167,9.20563226892168
12.6190977500009,-1.50266981095076,4.15135646760464,5.31307133316994,6.90800290049286
12.6290847500004,-0.161214752197266,-5.0617556655407,6.61949601531029,8.33457186126967
12.6390727500002,1.74309679359198,-18.4383244943619,5.0613568854332,19.1996752606115
12.6490598750006,2.5557928186655,-45.3361713838577,2.50391485959291,45.4771382378284
12.6590468750001,4.29506465613842,-64.1175309705734,1.78931669443846,64.2861339045665
12.6690348750017,5.6561426782608,-30.9823001003265,-9.03556201457977,32.7648630459957
12.6790218750011,4.80767368018627,-4.10032781660557,-8.66982686161995,10.7281085112545
12.6890098750009,1.00681422919035,5.37102834999561,1.85498326510191,5.77083905011783
12.6989968750004,-2.65177807956934,9.03263782203198,9.67304768443108,13.4977155293985
12.7089838750017,-4.89709602624178,6.05879656612873,8.3619931769371,11.4286261296408
12.7189718750014,-6.00003906548023,-3.20867537677288,7.33516246676445,10.0050324774399
12.7289588750009,-3.60358404278755,-10.1668485546112,7.29597793579102,13.0223623634647
12.7389468750007,1.74969449937344,-12.2213005185127,7.03406418979168,14.2091405873489
12.7489338750001,7.04729351520538,-12.2265793848038,7.41853089809418,15.9432804036165
12.7589208750014,12.336846177578,-12.4568661260605,8.30203290402889,19.3983256398946
12.7689088750012,17.6838032948971,-13.1631396102905,8.4443172955513,23.6070251823596
12.7788958750007,14.4670008730888,-13.6592384362221,5.71281506180763,20.7003662974822
12.7888838750005,7.25812189221382,-10.7017038953304,1.50826062619686,13.0185118113439
12.7988708749999,1.66180792450905,-6.85997445344925,-0.313801352977753,7.06536102184935
12.8088578750012,-0.419438028037548,-4.22402566373348,1.38801906824112,4.46597335426938
12.818845875001,0.0775223851203918,-3.97880864202976,4.06914812386036,5.69165128798328
12.8288328750004,0.106187482774258,-5.22748329877853,4.20088326126337,6.70710649947272
12.8388208750002,-0.0420264239609242,-6.31079635798931,1.79736801803112,6.56189368129073
12.8488078750015,0.0542614303529263,-6.33576396882534,-0.907449277639389,6.40064946415421
12.858794875001,-0.133315493613482,-5.43337896466255,-1.34392170667648,5.59870570294163
12.8687828750008,-0.611593175679445,-4.3067263430357,-0.504731070399284,4.37911994123953
12.8787698750002,-1.1133601462841,-3.03262331485748,-0.227985569536686,3.23857258758668
12.888757875,-1.39545979633927,-1.56933070063591,-0.44348090171814,2.14634158543005
12.8987448750013,-1.39002334758639,-0.0972742795944214,-0.864980365633965,1.64006653073531
12.9087318750007,-1.26233302161098,1.27830659151077,-1.17669133901596,2.14759281677523
12.9187198750005,-1.10146661728621,2.56836667120457,-0.977908226251602,2.96075000054393
12.928706875,-1.22162624113262,3.70898829102516,-0.264641764461994,3.91394942219277
12.9386948750016,-1.3464418566227,4.83014219105244,0.0682706281542778,5.01476222145367
12.9486818750011,-1.40244385689497,5.86108934104443,-0.346604525148869,6.03650161370812
12.9586688750005,-1.40581053748727,6.76025545299053,-0.963012444376946,6.97171069573482
12.9686568750003,-1.53606881439686,7.36360390841961,-1.20870016694069,7.61860394141982
12.9786438750016,-1.49743333697319,7.64278038918972,-1.06362811535597,7.86038825019715
12.988630875001,-1.45486765354872,7.65188274979591,-1.03447916060686,7.85735939356833
12.9986188750008,-1.25824040919542,7.4586527377367,-1.12409183353186,7.64710742959013
13.0086058750003,-0.740967353582382,7.17954876244068,-1.30115897208452,7.33402806934733
13.0185938750001,-0.175416761934757,6.77514129459858,-1.19696509748697,6.88229874727511
13.0285808750014,0.18021381765604,6.40845830798149,-0.975989462435246,6.48485700196973
13.0385678750008,0.397322981357574,6.13781525373459,-0.598146187663078,6.17967802577996
13.0485558750006,0.55386025339365,5.81269836902618,-0.15359436839819,5.84104568887905
13.0585428750001,0.648969309031963,5.27996205925941,0.108600921034813,5.32080394971793
13.0685308750017,0.695792057812214,4.36339229464531,0.210452401041985,4.42352903435582
13.0785178750011,0.941623329520226,3.08932551920414,0.342985098659992,3.24780317079183
13.0885048750006,1.32111551910639,1.63563227891922,0.753404819816351,2.23344084076313
13.0984928750004,1.78314583539963,-0.0120171976089478,1.45719776898623,2.30286317901864
13.1084798750016,2.29581216216087,-1.95643508791924,1.87903885647655,3.55375558547799
13.1184678750014,2.37472443044186,-3.832004352808,1.97449830651283,4.92160716056238
13.1284548750009,2.00544001758099,-5.19792913198471,1.39879899501801,5.74429243281659
13.1384418750004,1.70832018613815,-5.1935834813118,0.31433037981391,5.47635561513274
13.1484298750001,1.6749305382371,-3.55661335945129,-0.56320629671216,3.97140935049547
13.1584168750014,1.98797935456038,-1.40561801791191,-0.686662507653236,2.52968957104494
13.1684048750012,2.24552698463202,0.150773379206657,-0.317658176422119,2.27289039938924
13.1783918750007,2.22667965441942,1.14756928145885,0.468840860724449,2.54849549574611
13.1883788750001,2.05457153946161,1.69950609326363,1.50723911762238,3.06289975831677
13.1983668749999,1.88371911406517,1.95445054292679,2.51502661585808,3.70049098146662
13.2083538750012,1.75494968444109,2.02502585113049,3.10578367710114,4.10200808648819
13.2183408750007,1.51075300186873,1.97460063278675,3.4233064904809,4.23089229589053
13.2283288750004,1.1454251074791,1.76618657112122,3.31223365902901,3.9245771100664
13.2383158749999,0.74444878578186,1.41520628213882,2.83690999031067,3.25654281543814
13.2483038750015,0.349659987688065,1.0437607383728,2.24459523081779,2.49998126716352
13.258290875001,0.0852398692443967,0.81089186668396,1.66653057441115,1.855299331701
13.2682778750004,-0.0617422118782997,0.634210059642792,1.13056674778461,1.29777335142775
13.2782658750002,-0.13231898188591,0.478891054987907,0.767974473237991,0.914674667332558
13.2882528750015,-0.0750093249231577,0.289036640524864,0.399242914617062,0.498561413732806
13.2982408750013,0.107905467823148,0.0327163410186768,-0.251845717728138,0.275935163568878
13.3082278750007,0.34552282679826,-0.302335547804832,-0.829056973010302,0.947696297239845
13.3182148750002,0.617910653650761,-0.537076697945595,-0.629913087040186,1.0329837620194
13.328202875,0.711231484562159,-0.689874967932701,-0.158733047693968,1.00348087995878
13.3381898750013,0.664021138474345,-0.875498921871185,0.120804937183857,1.10544844628158
13.3481778750011,0.499558623433113,-1.04922203779221,0.25840015411377,1.19046055897759
13.3581648750005,0.315186558365822,-1.00459024071693,-0.00168341338634491,1.05287556349211
13.368151875,0.00818873316049576,-0.733534373044968,-0.0127545315027237,0.733690949830446
13.3781398750016,-0.28350217781961,-0.403613415956497,0.405968528240919,0.638817438937473
13.388126875001,-0.600922372564673,-0.0954376691579819,1.01778009742498,1.18578765943042
13.3981138750005,-0.94441617898643,0.0803729027509689,1.72373856291175,1.96714421329424
13.4081018750003,-1.16273666650057,0.299731197953224,2.44010390281677,2.71954084418546
13.4180888750016,-1.30730322629213,0.522193195223808,3.07879059076309,3.38536245627898
13.4280768750014,-1.35400844603777,0.744333595633507,3.43529708325863,3.76678077723878
13.4380638750008,-1.32721182614565,1.02301949501038,3.64181284636259,4.00884783030782
13.4480508750003,-1.22848714470863,1.34725754320622,3.70274171054363,4.1272969032334
13.4580388750001,-1.08359460264444,1.63582289814949,3.63399307250977,4.12989097532118
13.4680258750013,-0.96910078458488,1.83550238907337,3.53689011633396,4.10095318749165
13.4780138750011,-0.925863548442722,2.0006178188324,3.3257407271862,3.99001833978613
13.4880008750006,-0.899055599570274,2.14246366918087,3.01518516361713,3.80654608743616
13.497987875,-0.863464328795672,2.2511821192503,2.67206996440887,3.59907619755832
13.5079758750016,-0.791922768205404,2.33568958818913,2.27358981907368,3.35437001366466
13.5179628750011,-0.674420046061278,2.38076109588146,1.93207734167576,3.13939303821756
13.5279508750009,-0.655682204961777,2.41702786624432,1.46598160251975,2.90190367156311
13.5379378750004,-0.707933216392994,2.39592292606831,1.02077869579196,2.6988155276556
13.5479248750016,-0.795968749076128,2.20070895373821,0.646875713467598,2.42798977288694
13.5579128750014,-0.655163703113794,1.93184403777123,0.656340601444244,2.14290546904295
13.5678998750009,-0.545625181049109,1.63836760640144,0.764916233271361,1.88866410349287
13.5778868750003,-0.380336966067553,1.19913763046265,0.511035538315773,1.35784556779139
13.5878748750001,-0.250821139365435,0.816683533787727,-0.0896612048149109,0.859024079966008
13.5978618750014,-0.201251661032438,0.602224035859108,-0.491064957976341,0.802695965722423
13.6078498750012,-0.0925016359984875,0.385449040532112,-0.697510262131691,0.802276810887952
13.6178368750006,0.0713817854225636,-0.202659816741943,-0.500755548477173,0.544905936784199
13.6278238750001,0.273591220378876,-1.12500253736973,-0.301605230569839,1.19643160275204
13.6378118749999,0.731203015074134,-1.80014369130135,0.00156661525368691,1.94298162957576
13.6477988333336,0.858552229106426,-2.29975903272629,0.370951454043388,2.48266157983054
13.6577868333334,1.26797529235482,-2.39745898962021,0.397023603916168,2.74102146854045
13.6677738333346,1.35888955548406,-2.34669989526272,0.57896834358573,2.77286594795062
13.6777608333341,1.46379372060299,-2.27945106804371,0.980237903147936,2.880877570264
13.6877488333339,1.82515427917242,-1.81735380113125,0.371774303466082,2.60234108332964
13.6977358333334,2.00061241015792,-0.990996049046517,-0.236961922645569,2.24514456944037
