Time (s),Linear Acceleration x (m/s^2),Linear Acceleration y (m/s^2),Linear Acceleration z (m/s^2),Absolute acceleration (m/s^2)
0.008159292,-0.057496695,-1.895249823,-2.079097978,2.813880979
0.018152292,-0.211653565,-2.04226929,-3.076154666,3.698430561
0.028146292,0.170042586,-1.715830935,-3.018406395,3.476171377
0.038139292,1.008021825,-1.132260101,-2.612390943,3.020381992
0.048133292,1.862175925,-0.679368691,-1.720620974,2.624838572
0.058127292,2.670446485,-0.299455209,-0.650930758,2.764899402
0.068120292,3.083208747,-0.157129303,0.075121518,3.08812387
0.078114292,2.991773205,-0.115495373,-0.083080164,2.995154153
0.088107292,2.623171162,-0.245955525,-1.173772409,2.884313217
0.098101292,2.045090864,-0.530345383,-2.277129723,3.10628116
0.108094292,1.471226847,-0.811135696,-2.678429396,3.16171371
0.118088292,1.076209423,-0.966566967,-2.837738541,3.185159093
0.128081542,0.838993147,-0.972683447,-2.861249025,3.136362315
0.138075542,0.911232572,-0.791276212,-1.825013069,2.187952364
0.148068542,1.741062547,-0.250470453,0.620886009,1.865350819
0.158062542,2.164735714,-0.245348292,1.464260328,2.624944724
0.168055542,2.164380934,-0.572416977,0.623974509,2.324123536
0.178049542,1.777923249,-0.559661861,0.01125706,1.863963304
0.188042542,1.30921702,0.056330906,-0.18760616,1.323789427
0.198036542,0.55729023,0.427365098,-0.609139538,0.929658165
0.208029542,-0.573546513,0.438546436,-1.85296159,1.988654126
0.218023542,-1.436404632,0.703263338,-2.491722538,2.960830761
0.228017542,-1.487172497,1.324671503,-1.951817542,2.788553091
0.238010542,-0.971816451,1.927002543,-1.563538449,2.665036303
0.248004542,-0.1873157,2.242227401,-1.118982244,2.512925019
0.257997542,0.149563298,2.210877846,0.241981757,2.229104126
0.267991542,-0.0567287,1.782357338,0.696147861,1.914324338
0.277984542,-0.119845848,1.481355833,0.689754515,1.638456414
0.287978542,-0.101144259,1.363642903,0.916557485,1.646156054
0.297971542,-0.185226636,1.287948358,1.023668536,1.655601749
0.307965542,-0.607479513,1.304786,1.002378239,1.753927022
0.317958542,-1.320660752,1.389754229,0.988427952,2.156977389
0.327952542,-1.901972367,1.358117284,0.990746373,2.538416794
0.337945542,-2.426026293,0.994771011,0.9200243,2.778779885
0.347939542,-2.683874031,0.536578808,0.822895031,2.858015546
0.357932542,-2.868315678,0.151864762,0.809882053,2.984326838
0.367926542,-2.951135056,-0.013917543,0.741152126,3.042810919
0.377919542,-2.747746968,-0.001544834,0.691924417,2.833526987
0.387913542,-2.413738077,0.29772151,0.918988173,2.599867085
0.397907542,-2.168674252,0.590863188,1.56471257,2.738721005
0.407900542,-2.120243811,0.708572025,1.86392512,2.910622783
0.417894542,-2.18665634,0.836131373,1.618296454,2.845955909
0.427887542,-2.216843614,0.955978829,1.139598942,2.669639841
0.437881542,-2.173823749,0.964769825,0.518350405,2.434127697
0.447874542,-1.948057636,1.069753951,-0.174532955,2.22929671
0.457868542,-1.759310538,1.323507323,-0.541096659,2.267075384
0.467861542,-1.49770611,1.591982229,-0.417865419,2.225340989
0.477855542,-1.189390907,1.621240235,0.279893934,2.030125918
0.487848542,-0.942912933,1.462700291,1.514684377,2.307129321
0.497842542,-0.917604722,0.919509745,2.975641029,3.246834786
0.507835542,-0.996318477,0.04725135,4.325797037,4.439302108
0.517829542,-1.124351304,-0.911377437,5.175039622,5.373621663
0.527822542,-1.453950664,-1.847520464,5.278314899,5.778227459
0.537816542,-1.709390373,-2.562964136,4.563416771,5.505957977
0.547809542,-1.956131617,-2.914898691,3.407854346,4.892500028
0.557803542,-2.182766188,-2.845083228,1.899448124,4.05793913
0.567797542,-2.062483407,-2.373496808,0.558060016,3.193549104
0.577790542,-1.558827055,-1.557295377,-0.45650382,2.250223637
0.587784542,-0.90382225,-0.70928597,-1.173727385,1.642442456
0.597777542,-0.366291516,-0.059846252,-1.394812363,1.443347698
0.607771542,-0.001532811,0.138282849,-1.250713581,1.258335789
0.617764542,0.231939749,-0.126286702,-0.95542042,0.991247979
0.627758542,0.344090405,-0.68455137,-0.60112242,0.973836203
0.637751542,0.523982772,-1.186835381,-0.395040228,1.356168481
0.647745542,0.754612562,-1.386140943,-0.549139504,1.671041898
0.657738542,0.863704357,-1.396946597,-0.926725793,1.885806381
0.667732542,0.895783352,-1.2287912,-1.478218802,2.120727812
0.677725542,0.857493152,-0.927887051,-2.232211413,2.564963289
0.687719542,0.789692933,-0.583086099,-3.134385917,3.28450596
0.697712542,0.755865913,-0.31175015,-3.780399166,3.867808073
0.707706542,0.71704157,-0.081349095,-4.025458313,4.089630903
0.717699542,0.509615907,-0.023318404,-3.971507224,4.004138078
0.727693542,0.268149655,-0.100010192,-3.725671567,3.736647548
0.737687542,-0.065469958,-0.193364498,-3.462766133,3.468778666
0.747680542,-0.442334994,-0.237154881,-3.404526111,3.441322525
0.757674542,-0.606517354,-0.111712224,-3.507466927,3.561273251
0.767667542,-0.609495779,0.148033082,-3.447786736,3.504373307
0.777661542,-0.612370417,0.421255343,-3.169179189,3.255172856
0.787654542,-0.636341077,0.674436272,-2.498698266,2.665199294
0.797648542,-0.643115515,0.849060152,-1.64141459,1.956717293
0.807641542,-0.725549123,0.883527149,-1.099251984,1.586000214
0.817635542,-0.794400672,0.748376068,-0.935628764,1.437546643
0.827628542,-0.611793004,0.528856097,-0.580206345,0.995298375
0.837622542,-0.46255916,0.393384589,-0.166467306,0.629621931
0.847615542,-0.307449523,0.406603974,0.385053184,0.638841103
0.857609542,-0.124268974,0.477918078,1.194219537,1.292288192
0.867602542,0.127313327,0.566274185,2.033332406,2.114548606
0.877596542,0.53506204,0.607828592,2.860658457,2.973064713
0.887589542,0.777222868,0.471296691,3.162906881,3.290923259
0.897583542,0.906614441,0.193316843,3.129614004,3.264016692
0.907577542,0.959681724,-0.127049471,2.701986659,2.870167675
0.917570542,0.908623545,-0.666558611,1.506395949,1.881256464
0.927564542,0.703655101,-1.127855394,0.44204658,1.400925933
0.937557542,0.439333179,-0.590049548,1.131531538,1.349642817
0.947551542,0.866246288,0.006668165,1.27660973,1.542776554
0.957544542,1.361239405,0.291227008,0.793756601,1.602446701
0.967538542,1.597297787,0.62613447,1.30977806,2.158453882
0.977531542,1.629176514,0.742828815,1.732086194,2.491211221
0.987525542,1.428678413,0.470989712,1.605959998,2.200468321
0.997518542,1.247200866,0.01505278,1.550413204,1.989853685
1.007512542,1.191143463,-0.093287648,1.41364683,1.850924822
1.017505542,1.368414962,0.091166863,0.86703917,1.622537466
1.027499542,1.638417308,0.308761345,0.505292403,1.742143868
1.037492542,2.023320218,0.497409772,0.749934644,2.214417114
1.047486542,2.34577355,0.372164167,1.518654052,2.819125724
1.057479542,2.429272374,-0.20323109,2.86155425,3.759143502
1.067473542,1.986095235,-1.105338059,3.890282966,4.505624049
1.077466542,1.261577854,-1.952401971,3.832760983,4.482578375
1.087460542,0.582833792,-2.489028726,3.050481881,3.979999866
1.097453542,-0.020495368,-2.553866746,1.758133201,3.100594744
1.107447542,-0.475152638,-2.234236888,0.45188452,2.328472487
1.117441542,-0.662980553,-1.86608742,-0.55876636,2.057679596
1.127434708,-0.472835532,-1.63622811,-1.315739881,2.152205219
1.137428708,0.042561261,-1.342184499,-1.76297528,2.216157153
1.147421708,0.736133314,-0.886729669,-1.975746102,2.287302871
1.157415708,1.5478932,-0.24820261,-2.007333346,2.546952111
1.167408708,2.091979979,0.327694922,-2.084959812,2.971669835
1.177402708,2.379104872,0.673523229,-2.161974658,3.284495084
1.187395708,2.339393653,0.753000631,-2.227393307,3.316783617
1.197389708,2.021147685,0.626240889,-2.26933597,3.102757058
1.207382708,1.587478265,0.378973249,-2.14374304,2.694316646
1.217376708,1.059483609,0.018849669,-1.870587437,2.149873993
1.227369708,0.548910366,-0.353683164,-1.605051341,1.732796635
1.237363708,0.133035704,-0.659218601,-1.438371196,1.587822207
1.247356708,-0.192360019,-0.828563907,-1.589001904,1.802345021
1.257350708,-0.463717384,-0.801851487,-1.93941969,2.149266934
1.267343708,-0.636825738,-0.559695482,-2.356229687,2.504121481
1.277337708,-0.65894941,-0.223100221,-2.492449347,2.587719417
1.287330708,-0.679304225,0.109594071,-2.306883865,2.407317648
1.297324708,-0.70266948,0.319952039,-2.108308913,2.245234994
1.307317708,-0.851105946,0.383596935,-2.231546584,2.418951859
1.317311708,-0.912798968,0.487565984,-2.394247699,2.608322179
1.327305708,-0.940041877,0.72518835,-2.381073922,2.660655914
1.337298708,-0.906067434,1.041212522,-2.041721406,2.464489402
1.347292708,-0.82957394,1.268907485,-1.50436755,2.135752994
1.357285708,-0.866843362,1.347097329,-0.992658412,1.8845316
1.367279708,-0.951609716,1.365171073,-0.527479078,1.745705384
1.377272708,-1.075168692,1.326795797,-0.019580571,1.707851926
1.387266708,-1.310710106,1.274586301,0.442693866,1.881092523
1.397259708,-1.501146757,1.208600472,0.649563094,2.033737668
1.407253708,-1.682903217,1.107275534,0.940328171,2.223159782
1.417246708,-1.929931121,1.026261191,1.076425039,2.436500981
1.427240708,-2.068705721,1.051447196,0.876579487,2.480620117
1.437233708,-2.027401575,1.181304792,0.795211388,2.477538962
1.447227708,-1.850956288,1.310514225,0.980902585,2.470962686
1.457220708,-1.538275554,1.399992412,1.278559776,2.44151296
1.467214708,-1.210089538,1.359290821,1.680880957,2.477367356
1.477207708,-0.95183498,1.392274672,2.129215048,2.716242867
1.487201708,-0.67380872,1.543516998,2.708729083,3.189620065
1.497194708,-0.458661589,1.679839276,3.477119293,3.888777317
1.507188708,-0.506364344,1.69189565,3.784968181,4.176709215
1.517181708,-0.806772065,1.510951515,3.252799051,3.676215079
1.527175708,-1.472089165,1.117106457,2.141404738,2.828530997
1.537168708,-2.257414374,0.71836845,0.97799418,2.562897872
1.547162708,-2.761787887,0.452361068,0.120402941,2.801178277
1.557155708,-2.915015343,0.251703338,-0.111370162,2.927980931
1.567149708,-2.876930673,0.064749435,0.392056979,2.904243664
1.577143708,-2.703967111,-0.162944943,1.197804465,2.961878581
1.587136708,-2.486895954,-0.436857468,2.471408726,3.53317945
1.597130708,-2.364596907,-0.863028273,3.848208157,4.598352134
1.607123708,-2.37632189,-1.43153931,4.433309206,5.229764912
1.617117708,-2.530948876,-1.87435626,4.058699149,5.13730984
1.627110708,-2.847283828,-2.087775538,3.041266669,4.659950091
1.637104708,-3.030232388,-2.047515997,1.997741573,4.167205476
1.647097708,-2.959141648,-1.88458918,1.121862583,3.683309833
1.657091708,-2.745949534,-1.725296992,0.381771727,3.265369536
1.667084708,-2.342385089,-1.451918903,-0.03120659,2.756049756
1.677078708,-1.78141506,-1.065832223,-0.118551713,2.079300953
1.687071708,-1.208842693,-0.700181855,0.073661469,1.398921477
1.697065708,-0.644328082,-0.459020462,0.305456792,0.848034382
1.707058708,-0.133781371,-0.365938636,0.543027994,0.668347172
1.717052708,0.224068227,-0.331305578,0.618761131,0.73677357
1.727045708,0.39555566,-0.437901489,0.434753932,0.732961783
1.737039708,0.478731682,-0.592046665,0.098726728,0.76775663
1.747032708,0.493157055,-0.816494961,-0.327648144,1.008573849
1.757026708,0.522274618,-1.017014405,-0.762098606,1.374002679
1.767019708,0.50053551,-1.152591163,-1.137569958,1.695012565
1.777013708,0.443547999,-1.175134225,-1.376659098,1.863562595
1.787006708,0.526389121,-1.089877436,-1.502535033,1.929385875
1.797000708,0.655223052,-1.026590974,-1.683473028,2.077808392
1.806993708,0.677632214,-1.001419296,-1.961462524,2.304205125
1.816987708,0.599382435,-0.957572195,-2.261017136,2.527528892
1.826980708,0.487811567,-0.835723822,-2.627269183,2.799810313
1.836974708,0.326751328,-0.730823019,-3.033194588,3.137058833
1.846967708,0.132820673,-0.733801006,-3.246154275,3.330709057
1.856961708,-0.056328275,-0.960747818,-3.270557629,3.409216398
1.866954708,-0.129368915,-1.255622318,-3.142132308,3.386195382
1.876948708,-0.083345481,-1.040859642,-2.630276991,2.829963306
1.886942708,0.290173485,-0.682139394,-1.67084772,1.827907795
1.896935708,0.558710226,-0.62474371,-0.459291773,0.95572525
1.906929708,0.457354006,-0.16298295,0.739163488,0.884363494
1.916922708,0.715209784,0.809622436,1.241639872,1.645807733
1.926916708,1.017557172,1.51062524,1.14157764,2.149560588
1.936909708,1.023724596,1.912137167,1.86875375,2.862956719
1.946903708,1.002643118,1.637626472,2.967325119,3.534421034
1.956896708,1.01303362,0.890962468,3.400220221,3.658079932
1.966890708,0.782972362,0.140094609,3.224020225,3.320689481
1.976883708,0.273427718,-0.342062993,2.794358633,2.828464243
1.986877708,-0.16322656,-0.431330388,1.988422281,2.041203562
1.996870708,-0.097356945,-0.313720369,1.346809646,1.386288234
2.006864708,0.413971978,0.051093263,1.048257247,1.12819616
2.016857708,1.011104916,0.338411699,0.704881262,1.278167917
2.026851708,1.391938457,0.474525816,0.669205061,1.615705057
2.036844708,1.493107421,0.629974044,0.197542918,1.632562486
2.046838708,1.387056909,0.787925173,-0.902522414,1.832839233
2.056831708,1.311096754,0.990859517,-2.074986801,2.646950604
2.066825708,1.324025532,1.118592527,-2.232295028,2.826204866
2.076818708,1.499095554,1.232490441,-1.602611883,2.516880016
2.086812708,2.048972977,1.404557333,-0.867895203,2.63140906
2.096805708,2.587156406,1.303694617,0.107643147,2.899066224
2.106799708,2.764243133,0.948013459,1.128299198,3.132543487
2.116792708,2.622076271,0.547679454,1.941272088,3.308137554
2.126786458,2.01101753,-0.125749927,2.810805096,3.458414353
2.136779458,1.420482956,-0.945971027,3.309325254,3.723475077
2.146773458,0.551587002,-1.873503151,3.3353325,3.865062116
2.156766458,-0.210402554,-2.412186372,2.497762127,3.478753795
2.166760458,-0.708855468,-2.681600341,1.2127786,3.02725757
2.176753458,-0.927461081,-2.503221672,-0.126465919,2.672507516
2.186747458,-0.782281294,-1.869666501,-1.311274363,2.413929846
2.196740458,-0.343432264,-1.145460191,-1.98831937,2.320223844
2.206734458,0.214940285,-0.656152321,-2.093787353,2.204695143
2.216727458,0.782407302,-0.378857182,-1.986665778,2.168532882
2.226721458,1.270563124,-0.415228033,-1.631736279,2.109338345
2.236714458,1.490884748,-0.607823037,-1.256263173,2.042151644
2.246708458,1.533470604,-0.527476739,-1.098047458,1.958436117
2.256701458,1.573403579,-0.425207768,-0.848724521,1.837589122
2.266695458,1.573936699,-0.504299546,-0.415925313,1.704285372
2.276688458,1.430564286,-0.646661121,-0.008118274,1.569952448
2.286682458,1.066952111,-0.845481656,0.129391281,1.367467784
2.296675458,0.704842671,-0.952880974,0.014130381,1.185320635
2.306669458,0.351525396,-1.16035188,-0.062782139,1.214054441
2.316662458,0.172781714,-1.253885111,-0.297445521,1.300213532
2.326656458,0.130306663,-1.155394025,-0.695491219,1.354851732
2.336649458,0.130199951,-0.963685459,-0.980933576,1.381257532
2.346643458,0.108140307,-0.756416282,-1.269945073,1.482099999
2.356636458,0.158044684,-0.486581021,-1.634031311,1.712249263
2.366630458,0.304714487,-0.088976496,-2.054400508,2.078780697
2.376623458,0.458632792,0.440713707,-2.422363451,2.504479446
2.386617458,0.59842817,0.927859569,-2.523895673,2.754830125
2.396610458,0.565678646,1.204019471,-2.552410789,2.878273103
2.406604458,0.238784938,1.248286109,-2.550149671,2.849298124
2.416598458,-0.248305521,1.257549268,-2.459332471,2.7733377
2.426591458,-0.640079056,1.305144142,-2.075562167,2.533981203
2.436585458,-0.772563953,1.555140678,-1.46763768,2.273604616
2.446578458,-0.591199403,1.963778606,-0.988667688,2.276709675
2.456572458,-0.267361451,2.279837569,-0.327118971,2.318652261
2.466565458,-0.140682401,2.514254783,0.574818721,2.582960552
2.476559458,-0.164097576,2.642829793,1.243832577,2.925507958
2.486552458,-0.350124403,2.562201952,1.637675881,3.060955444
2.496546458,-0.559063106,2.400971412,1.960908208,3.149980361
2.506539458,-0.54957863,2.34051588,2.544744505,3.500825024
2.516533458,-0.58092643,2.377556237,2.900189143,3.794910571
2.526526458,-0.710748505,2.392887636,2.247318864,3.358796921
2.536520458,-0.584434467,2.56902039,1.517531387,3.040449131
2.546513458,-0.089520287,2.885719038,1.487930442,3.247972483
2.556507458,0.309824954,2.987853523,1.472687336,3.345454852
2.566500458,0.505023724,2.67322479,1.690683814,3.203059709
2.576494458,0.552792552,2.268068293,2.054539672,3.109798491
2.586487458,0.080874301,1.907747662,2.128484146,2.85945564
2.596481458,-0.867013443,1.520025224,1.070492454,2.051375901
2.606474458,-1.381320498,1.509886152,-0.439638696,2.093104081
2.616468458,-1.528851888,1.965076688,-1.265619888,2.792974792
2.626461458,-1.773719831,2.161251943,-1.150059026,3.023198267
2.636455458,-2.144072531,1.465408137,-0.660868685,2.679778991
2.646448458,-2.415923327,0.107296407,0.721856314,2.523742178
2.656442458,-2.599908014,-1.158576665,2.21492295,3.606619643
2.666435458,-2.724047619,-1.924397609,2.697949156,4.289833474
2.676429458,-2.839829505,-2.116992028,2.28889666,4.217266269
2.686422458,-3.04338073,-2.158808976,1.787269292,4.13726407
2.696416458,-3.366906295,-2.293408372,1.448012086,4.323484585
2.706409458,-3.558272799,-2.496827742,1.315290231,4.541524246
2.716403458,-3.496200512,-2.67683603,1.235161157,4.573236516
2.726396458,-3.353017403,-2.712829735,0.890877099,4.404070036
2.736390458,-3.060756608,-2.674872535,0.519491782,4.097931894
2.746383458,-2.673875877,-2.606373573,0.424651698,3.75807457
2.756377458,-2.056758106,-2.625754169,0.946805717,3.467171748
2.766370458,-1.123562661,-2.567546307,1.361677362,3.115903132
2.776364458,-0.209172738,-2.359699425,1.798280768,2.974180279
2.786357458,0.113234693,-2.135841697,1.537168676,2.633919017
2.796351458,0.132175287,-2.074730693,0.813354714,2.232380712
2.806344458,0.03856151,-2.18073428,-0.207244034,2.190899149
2.816338458,-0.028073067,-2.123447354,-1.258147146,2.468349855
2.826331458,-0.001750661,-1.890755653,-1.895125278,2.677024435
2.836325458,-0.072407095,-1.627231584,-2.220355014,2.753743235
2.846318458,0.100223633,-1.543688321,-2.368189582,2.82866405
2.856312458,0.192575562,-1.613056179,-2.662874633,3.119284677
2.866305458,0.358459463,-1.536652951,-2.711610591,3.137296205
2.876299458,0.462713856,-1.226116391,-2.946350572,3.22466234
2.886292458,0.608557374,-0.809523326,-3.5961458,3.736031947
2.896286458,0.944531881,-0.405790919,-4.104367658,4.231151216
2.906279458,1.274634394,0.021585581,-4.118142529,4.310946144
2.916273458,1.351659327,0.550431738,-3.71938581,3.995471041
2.926266458,1.175139634,0.973645021,-3.245319293,3.586228534
2.936260458,0.885133525,1.12788463,-2.787690468,3.134773236
2.946253458,0.626387216,1.225465304,-2.173171492,2.572314228
2.956247458,0.341771363,1.159713364,-1.742258595,2.120662105
2.966240458,0.045624947,1.165826043,-1.29675865,1.744366646
2.976234458,-0.040844994,1.365710771,-0.59214636,1.489117704
2.986227458,-0.062589766,1.552449789,-0.030470425,1.55400974
2.996221458,-0.071106235,1.737540477,0.437050134,1.793074406
3.006214458,0.221195637,1.863920442,1.268233008,2.265290685
3.016208458,0.612601382,1.834373292,2.421121502,3.098715081
3.026201458,0.64132254,1.430541775,3.419689695,3.761917328
3.036195458,0.22957762,0.765956014,3.934377989,4.014813154
3.046188458,-0.272161869,0.246764195,3.925884324,3.943035934
3.056182458,-0.527458613,0.049532349,3.267049885,3.309725214
3.066175458,-0.469709976,0.119168594,2.201771978,2.254468553
3.076169458,-0.207372526,0.202056384,1.210235061,1.244387018
3.086162458,0.149921878,0.202804243,0.452359314,0.517914162
3.096156458,0.596233271,0.480102013,0.615194914,0.982067635
3.106149458,1.62119141,1.027885548,2.503899364,3.155047118
3.116143458,2.774291866,1.296635858,3.791599508,4.873826703
3.126136708,3.168394785,1.349896976,3.504571386,4.913549426
3.136130708,2.998010429,1.568817315,2.264309118,4.071406402
3.146123708,2.983644405,2.020259201,1.049476392,3.752996386
3.156116708,3.37024067,2.250876895,0.586453511,4.094984333
3.166110708,4.105820106,1.898242428,0.952896761,4.622671879
3.176103708,4.999129647,1.052454379,1.956932101,5.470698374
3.186097708,5.540300565,-0.152477843,3.101288922,6.351076509
3.196090708,5.269151727,-1.486308424,3.5889011,6.546241957
3.206084708,4.501322849,-2.689308141,3.425007153,6.262983288
3.216077708,3.639518691,-3.765218625,3.070436089,6.070465005
3.226071708,2.762829276,-4.669087653,1.940540017,5.761883431
3.236064708,1.977754621,-5.154869066,0.105732862,5.522261119
3.246058708,1.448731585,-4.982463913,-1.713181561,5.464317058
3.256051708,1.13023141,-4.312085316,-3.247921304,5.515477822
3.266045708,1.135789773,-3.268464326,-4.506269594,5.681491275
3.276038708,1.588455774,-2.195590886,-5.20245897,5.865951791
3.286032708,2.167093457,-1.247045038,-5.259539489,5.82358747
3.296025708,2.838881671,-0.420696641,-5.323834888,6.048094966
3.306019708,3.496532634,0.299694945,-5.362030655,6.408348482
3.316012708,3.848078933,0.774464883,-5.076109995,6.416728139
3.326006708,3.826391611,0.758780311,-4.636999303,6.059602532
3.335999708,3.646527749,0.590716131,-3.916911187,5.384078697
3.345993708,3.166424858,0.476686362,-3.140558823,4.485151724
3.355986708,2.57139319,0.277464124,-2.630865805,3.689241678
3.365980708,1.903971238,0.021225393,-2.359810522,3.032204263
3.375973708,1.146117125,-0.216692842,-2.482741215,2.743090263
3.385967708,0.493344203,-0.240221745,-2.223224827,2.289939654
3.395960708,-0.281545626,0.131741277,-1.904445739,1.929646931
3.405954708,-0.867390003,0.824494244,-2.255216113,2.553067938
3.415947708,-1.302050965,1.368962992,-2.830717789,3.403286587
3.425941708,-1.691631502,1.731463173,-2.851827407,3.740655212
3.435934708,-1.755814926,1.86934695,-1.863531017,3.170187996
3.445928708,-1.824220917,1.775822783,-0.017552172,2.545905848
3.455921708,-1.894901622,1.515290441,2.028123121,3.162284091
3.465915708,-1.772846842,1.2966534,3.501256599,4.133169938
3.475908708,-1.594892096,1.23183526,4.174864613,4.635794802
3.485902708,-1.681747515,1.349403179,3.748124875,4.324072585
3.495895708,-1.821076139,1.337683897,3.272175554,3.976537359
3.505889708,-1.997024705,1.203868905,2.89696031,3.718842165
3.515882708,-2.252856031,0.754655685,2.826471541,3.692398526
3.525876708,-2.448454604,0.367037913,3.198422869,4.04469475
3.535869708,-2.406010689,0.092576334,3.502649406,4.250413
3.545863708,-2.268121064,-0.132311381,3.376738388,4.069919115
3.555856708,-2.200234452,-0.243810766,3.149965823,3.850033769
3.565850708,-2.166139484,-0.386199238,2.723451787,3.50121404
3.575843708,-2.116462855,-0.643247516,2.431632457,3.287250947
3.585837708,-2.15095982,-0.828518883,2.730470785,3.573309725
3.595830708,-2.186920781,-0.812042306,3.034139498,3.827275493
3.605824708,-2.314575585,-0.46319362,2.324364701,3.312775231
3.615817708,-2.5080772,0.100748695,0.765027477,2.624093859
3.625811708,-2.475075223,0.60402761,-0.741088391,2.653310897
3.635804708,-2.098452993,0.934121352,-2.002321697,3.047192124
3.645798708,-1.656274558,1.089840306,-2.236574605,2.988856515
3.655791708,-1.384137394,0.851887865,-1.004797232,1.910802642
3.665785708,-1.116893619,0.189534572,0.944831697,1.475154787
3.675778708,-0.940676958,-0.619838188,2.799128206,3.017315236
3.685772708,-0.9804313,-1.320576113,4.149048572,4.46315705
3.695765708,-0.890891279,-1.688513035,4.496471999,4.884979425
3.705759708,-0.798575584,-1.685715728,3.917937373,4.339307979
3.715752708,-0.92548443,-1.447358367,2.590211284,3.10814449
3.725745708,-1.088039656,-1.103737383,0.976265743,1.831709941
3.735739708,-1.185749261,-0.825484178,-0.408594659,1.501457636
3.745732708,-1.140650271,-0.594158387,-1.369392178,1.87865435
3.755726708,-0.970821839,-0.371649027,-1.944985655,2.205354221
3.765719708,-0.820084567,-0.26498178,-2.121815397,2.290164758
3.775713708,-0.693800789,-0.236354105,-1.955098999,2.087973873
3.785706708,-0.677211068,-0.402741596,-1.71977722,1.891678967
3.795700708,-0.655806312,-0.612067531,-1.538253334,1.780711066
3.805693708,-0.537749274,-0.79413667,-1.335904589,1.644526803
3.815687708,-0.382143463,-0.898496606,-1.124701406,1.489390153
3.825680708,-0.270575373,-0.971173988,-0.918365445,1.363739358
3.835674708,-0.201149627,-0.98900858,-0.720711429,1.240171
3.845667708,-0.159763473,-0.98170073,-0.685152757,1.20776446
3.855661708,-0.197550666,-1.021877241,-0.84615584,1.341357174
3.865654708,-0.323011887,-1.082614025,-1.21247279,1.657250757
3.875648708,-0.461314617,-1.162680241,-1.715388885,2.123015673
3.885641708,-0.643830776,-1.13920981,-2.242421236,2.596299301
3.895635708,-0.798785207,-1.098604113,-2.70766489,3.0292636
3.905628708,-0.866634835,-0.986181452,-3.043182802,3.314298019
3.915622708,-0.588971029,-0.654912419,-3.313537588,3.428604453
3.925615708,-0.144399622,-0.178690618,-3.33130026,3.339212933
3.935609708,0.049348746,0.447483321,-3.129183065,3.161402106
3.945602708,-0.024258051,0.976838186,-3.080675148,3.23192832
3.955596708,-0.149414486,1.238677087,-3.180965422,3.416897223
3.965589708,-0.176039783,1.590454937,-3.244368535,3.617521818
3.975583708,-0.029166496,2.008844851,-2.832015871,3.47226471
3.985576708,0.117103357,2.180034953,-2.169471374,3.077803053
3.995570708,0.280133816,2.034739246,-1.25041128,2.404613716
4.005563708,0.353616945,1.611687931,-0.080115625,1.65196896
4.015557708,0.385399156,1.045844394,0.967422414,1.475882493
4.025550708,0.339956826,0.547222494,2.010027743,2.110742672
4.035544708,0.439745554,0.306653132,2.952186093,3.000469134
4.045537708,0.760484994,0.083758148,3.634170243,3.713831742
4.055530708,1.148724399,-0.165081516,4.102410595,4.263401499
4.065524708,1.455307949,-0.311519769,4.241091347,4.494643658
4.075517708,1.667142339,-0.289178143,4.006120402,4.348791585
4.085511708,1.931532235,-0.160428009,3.238026645,3.773774036
4.095504708,2.112734671,0.002148267,2.23386559,3.074704519
4.105498708,2.047896066,0.143197434,1.588990794,2.596011468
4.115491708,1.918917744,0.310330446,1.277970961,2.326318996
4.125485708,1.999747168,0.50151364,1.003479854,2.29291877
4.135478167,2.098431212,0.707213424,0.632324917,2.302911023
4.145472167,2.08310946,0.793264266,0.280764585,2.246651279
4.155465167,2.137624514,0.778660845,-0.387440602,2.307782809
4.165459167,2.310384447,0.883463122,-0.851606029,2.616030621
4.175452167,2.561304112,0.944803922,-0.388390775,2.757495349
4.185446167,2.932060561,0.745945381,1.030662391,3.196197523
4.195439167,3.173733001,0.267495206,2.918112613,4.319666199
4.205433167,2.951762754,-0.52273377,4.663987126,5.544270003
4.215426167,2.370351736,-1.458792305,5.891935158,6.516252163
4.225420167,1.618523764,-2.319251311,6.128674302,6.749755145
4.235413167,0.873647255,-2.997952834,5.283683812,6.137450232
4.245407167,0.453410497,-3.24630104,3.893034666,5.089181706
4.255400167,0.360623809,-3.051421528,2.348855179,3.86760178
4.265394167,0.61566006,-2.418960371,0.88221211,2.647395851
4.275387167,1.189164108,-1.504521917,-0.555283173,1.996506167
4.285381167,1.765957068,-0.534278221,-1.937127582,2.675167444
4.295374167,2.162930093,0.246732912,-3.150490903,3.829456443
4.305367167,2.340323214,0.662112973,-3.959939092,4.647216796
4.315361167,2.226669276,0.736758235,-4.277540551,4.878342129
4.325354167,2.051545313,0.596023356,-4.437269526,4.924778457
4.335348167,1.67588305,0.287842054,-4.516127415,4.825644399
4.345341167,1.256951829,-0.011900253,-4.64894224,4.815883457
4.355335167,0.869506037,-0.254759093,-4.700217644,4.786751387
4.365328167,0.569970941,-0.46483084,-4.547518777,4.606610642
4.375322167,0.366628461,-0.622996854,-4.18069955,4.242733816
4.385315167,0.196747405,-0.655638058,-4.049405585,4.106854806
4.395309167,-0.040579823,-0.570277188,-4.165695595,4.204745246
4.405302167,-0.470746103,-0.443090892,-4.362853181,4.410489691
4.415296167,-0.891126775,-0.319185177,-4.463786649,4.563044746
4.425289167,-1.220077898,-0.256170903,-4.212867422,4.393457127
4.435283167,-1.524700219,-0.127743243,-3.95050344,4.236449755
4.445276167,-1.80347675,0.066354788,-3.690450279,4.108084055
4.455270167,-1.933969501,0.314595113,-2.976284807,3.563352266
4.465263167,-1.94669962,0.622255427,-1.844756193,2.753173921
4.475257167,-1.897140813,0.903957905,-0.65982905,2.202647846
4.485250167,-1.702316557,1.089230441,0.308296784,2.044346234
4.495244167,-1.603517178,1.25212276,1.255573202,2.390720145
4.505237167,-1.746886813,1.366195213,2.487751694,3.332718318
4.515231167,-1.904091983,1.300629799,3.776866863,4.425147168
4.525224167,-2.036073873,1.112487157,4.802082573,5.333218683
4.535218167,-2.132285129,0.95485207,5.249983969,5.746365288
4.545211167,-2.189823192,0.806928039,5.128174188,5.634237214
4.555204167,-2.277841183,0.630378672,4.768293852,5.321894774
4.565198167,-2.503851417,0.529169508,4.227552119,4.941810317
4.575191167,-2.820975743,0.454805497,3.799222523,4.753824141
4.585185167,-3.064341244,0.364000869,3.495661399,4.662867412
4.595178167,-3.037319798,0.301489163,3.145745888,4.383140936
4.605172167,-2.960366932,0.274785222,2.843167681,4.113743034
4.615165167,-2.930712486,0.440888246,2.446542272,3.843049207
4.625159167,-2.878349792,0.706638643,1.845484171,3.491424856
4.635152167,-2.771531687,1.014475543,0.933790399,3.095563443
4.645146167,-2.504998056,1.338984903,-0.049259868,2.840831281
4.655139167,-2.015592977,1.674295238,-0.899564307,2.770396278
4.665133167,-1.512550144,1.955937782,-1.238707493,2.765483104
4.675126167,-1.30925298,1.918657689,-0.285312549,2.340255103
4.685120167,-1.322840594,1.364646578,1.544506931,2.44901392
4.695113167,-1.34832466,0.449114986,3.346384322,3.635652856
4.705107167,-1.603300246,-0.568100855,4.91117349,5.197396975
4.715100167,-1.959006401,-1.439933572,5.929711679,6.408790476
4.725094167,-2.254916151,-2.129527874,6.144639539,6.883032099
4.735087167,-2.367732476,-2.541944858,5.506939861,6.511069603
4.745081167,-2.270419751,-2.556471388,4.362931534,5.543060831
4.755074167,-1.973526938,-2.166536364,3.021904784,4.209583936
4.765068167,-1.61193176,-1.620627739,2.007508762,3.042178446
4.775061167,-1.269934256,-1.322220935,1.414164308,2.315353517
4.785055167,-0.954795864,-1.255200734,0.870991888,1.801607863
4.795048167,-0.686403768,-1.318634838,0.38056837,1.534529326
4.805042167,-0.480274141,-1.443324373,-0.038070636,1.521610288
4.815035167,-0.329915183,-1.59010235,-0.492166573,1.696908202
4.825029167,-0.21670037,-1.714618514,-1.020749606,2.007188446
4.835022167,-0.119805429,-1.805864315,-1.526243153,2.367470681
4.845016167,0.004694876,-1.854289493,-1.914013538,2.664931404
4.855009167,0.183584591,-1.874516181,-2.294549748,2.968580934
4.865003167,0.435393033,-1.78262748,-2.762995337,3.316846553
4.874996167,0.657572391,-1.663230844,-3.246339047,3.706407357
4.884990167,0.807292248,-1.456854537,-3.744976734,4.098657909
4.894983167,0.929393147,-1.163816355,-4.147250553,4.406577728
4.904976167,0.954639816,-0.887162948,-4.438047205,4.625436009
4.914970167,0.895728388,-0.703899807,-4.639598975,4.777413833
4.924963167,0.702576582,-0.602806126,-4.690942206,4.781414838
4.934957167,0.468666175,-0.537808477,-4.589871914,4.64497687
4.944950167,0.146865795,-0.373087734,-4.329905875,4.348430626
4.954944167,0.052256237,-0.040582308,-4.029350805,4.029893987
4.964937167,0.165291394,0.397454836,-3.708357376,3.733256758
4.974931167,0.159913308,0.766377891,-3.180132778,3.27508043
4.984924167,0.110808391,0.962184479,-2.600866081,2.775352561
4.994918167,-0.092049829,1.031246235,-1.654312379,1.951586897
5.004911167,-0.161926212,0.901858462,-0.355610114,0.982866897
5.014905167,-0.100304307,0.603854824,1.170621929,1.321006171
5.024898167,0.051723519,0.468550546,2.558469089,2.601533974
5.034892167,0.363123786,0.541756225,3.702796674,3.75979546
5.044885167,0.601157065,0.596252275,4.328842852,4.410871459
5.054879167,0.734110178,0.610849264,4.343715829,4.447462398
5.064872167,0.845079075,0.652194341,3.788176548,3.935708025
5.074866167,0.86883083,0.672090369,2.908813201,3.109303252
5.084859167,0.918485312,0.692878098,2.157544223,2.445136479
5.094853167,0.947813484,0.742317768,1.69980664,2.082961518
5.104846167,0.902069108,0.747031501,1.455507631,1.868231036
5.114840167,0.753537405,0.695144186,1.302760232,1.657778116
5.124833167,0.602923509,0.712327107,1.309112062,1.607700549
5.134827417,0.56246984,0.857475757,1.306636936,1.661004839
5.144820417,0.508336464,1.025757161,0.923478835,1.470849031
5.154814417,0.602555719,1.191537127,0.283235618,1.36493829
5.164807417,0.819424708,1.305371891,-0.454138622,1.606765233
5.174801417,1.032748092,1.360212342,-1.173511623,2.072166925
5.184794417,1.333296146,1.359879051,-1.556957408,2.459891464
5.194788417,1.741112541,1.332522852,-1.226406121,2.51220262
5.204781417,2.035123993,1.173161375,-0.105322972,2.351410259
5.214775417,2.129345733,0.665666618,1.458592038,2.665467319
5.224768417,1.966183712,-0.258979613,3.067620655,3.652840718
5.234762417,1.635353367,-1.329617663,4.268318907,4.760337179
5.244755417,1.177159189,-2.24300011,4.55174339,5.209138234
5.254748417,0.697487604,-2.861982266,4.026050051,4.988638138
5.264742417,0.317826065,-3.048261401,3.207142237,4.436064957
5.274735417,0.124934387,-2.762847403,2.321776139,3.611035698
5.284729417,0.287525062,-2.142518633,1.550496234,2.660281062
5.294722417,0.780092755,-1.357730491,0.609571062,1.68034332
5.304716417,1.191777375,-0.727534545,-0.503048242,1.484148698
5.314709417,1.385845658,-0.214632868,-1.491862695,2.047508182
5.324703417,1.397823387,0.233996215,-2.338615535,2.734554273
5.334696417,1.245130221,0.426226938,-3.147953796,3.411983554
5.344690417,0.936277951,0.386586324,-3.650123202,3.788068739
5.354683417,0.561505926,0.222203843,-3.836946419,3.884175753
5.364677417,0.193382332,-0.049742848,-3.995846259,4.000832214
5.374670417,-0.152500501,-0.379955289,-4.227407693,4.247187096
5.384664417,-0.464361309,-0.728573303,-4.56020665,4.641329031
5.394657417,-0.71695664,-1.014101029,-4.754896127,4.914413993
5.404651417,-0.691412639,-1.141341412,-4.717789112,4.902881373
5.414644417,-0.51966062,-1.146079411,-4.479508642,4.652906925
5.424638417,-0.246031831,-0.975336328,-4.108102859,4.229458797
5.434631417,0.213326161,-0.621233626,-3.765755984,3.822611333
5.444625417,0.714233884,-0.20982558,-3.592363821,3.668682956
5.454618417,1.105496664,0.20483118,-3.614810697,3.78562215
5.464612417,1.221499576,0.469057792,-3.752283999,3.973878664
5.474605417,1.252745634,0.799383962,-3.859648819,4.135852433
5.484599417,1.200493746,1.237844444,-3.704323382,4.08600732
5.494592417,0.991188569,1.597628593,-3.285953348,3.785810522
5.504586417,0.576805312,1.704290285,-2.260719513,2.889318684
5.514579417,-0.001822175,1.659872204,-0.883354071,1.880290794
5.524573417,-0.626923406,1.756201866,0.10837288,1.867892564
5.534566417,-1.280644308,1.985614448,0.96744288,2.553166721
5.544560417,-1.859885863,2.033096178,1.933673047,3.366266024
5.554553417,-2.260781932,1.832309225,2.935923232,4.133780021
5.564547417,-2.491504437,1.466020925,4.051713481,4.977267709
5.574540417,-2.624346452,1.180569212,5.071605885,5.831134042
5.584534417,-2.660212688,1.011471829,5.751481529,6.417113572
5.594527417,-2.690747141,0.840236118,5.928758583,6.564776862
5.604521417,-2.669888661,0.654243498,5.870454826,6.482174009
5.614514417,-2.508732965,0.523240139,5.806680999,6.347051722
5.624508417,-2.268281717,0.415011101,5.801412073,6.242893416
5.634501417,-2.165077045,0.336133039,5.895762745,6.289718784
5.644494417,-2.27959988,0.377644762,5.559018087,6.020122364
5.654488417,-2.532387291,0.472388366,4.204494209,4.930913477
5.664481417,-2.692462714,0.569440452,2.284362729,3.576580905
5.674475417,-2.701276514,0.756469784,0.685725784,2.887795213
5.684468417,-2.491210907,0.955700501,-0.424250579,2.701755685
5.694462417,-2.134265288,0.922623972,-1.048254908,2.550521842
5.704455417,-1.928839446,0.682563025,-0.614030734,2.136199343
5.714449417,-1.746142901,0.031978422,1.173022796,2.103810859
5.724442417,-1.557483949,-0.95273187,3.105392498,3.602348795
5.734436417,-1.551932164,-1.848768552,4.014910521,4.684649943
5.744429417,-1.575940686,-2.389680439,3.962590805,4.888382916
5.754423417,-1.594878794,-2.525784323,3.006676295,4.238316548
5.764416417,-1.497131182,-2.168057809,1.503216818,3.033403574
5.774410417,-1.326732939,-1.3895487,0.11411543,1.924600793
5.784403417,-1.017636402,-0.475698475,-0.982012387,1.492052685
5.794397417,-0.645432913,0.383200494,-1.912701423,2.054714822
5.804390417,-0.41244622,0.896572287,-2.633631538,2.812466681
5.814384417,-0.421421988,1.158475508,-2.988396145,3.232672813
5.824377417,-0.609847672,1.115850768,-2.813649766,3.087662891
5.834371417,-0.793220996,0.934160236,-2.399089778,2.693972282
5.844364417,-0.783131479,0.75311202,-2.077148516,2.344145599
5.854358417,-0.526634594,0.871049191,-1.853452756,2.114558538
5.864351417,-0.042676488,1.168129553,-1.649220039,2.021453604
5.874345417,0.494661946,1.441426659,-1.6118996,2.218247411
5.884338417,0.815918279,1.49174195,-1.687190688,2.395334862
5.894332417,0.721317054,1.340572714,-1.864605151,2.407111519
5.904325417,0.381118227,0.996772513,-2.295183002,2.531140367
5.914318417,-0.017371639,0.543115118,-2.809135716,2.861209408
5.924312417,-0.553100408,-0.173600324,-3.192842286,3.245042218
5.934305417,-1.189663387,-1.018789912,-3.32415964,3.674679465
5.944299417,-1.750784713,-1.726940352,-3.382273362,4.181787081
5.954292417,-2.201382699,-2.29849925,-3.411849164,4.665822468
5.964286417,-2.510482745,-2.727705052,-3.358771648,5.002423957
5.974279417,-2.573024563,-2.934075219,-3.229911879,5.065726359
5.984273417,-2.380403831,-2.80374166,-2.966447452,4.725156101
5.994266417,-2.039721074,-2.43257649,-2.39649303,3.977570776
6.004260417,-1.597116085,-1.838365771,-1.957254283,3.124293972
6.014253417,-1.063504301,-1.120483224,-1.70700047,2.302254255
6.024247417,-0.645499133,-0.446035258,-1.458411943,1.656074267
6.034240417,-0.31824129,0.106576615,-0.997250231,1.05220916
6.044234417,0.02692482,0.540247643,-0.155281582,0.562765343
6.054227417,0.391466849,0.761098148,0.63099526,1.063330477
6.064221417,0.712131663,1.00725277,1.296176267,1.789346966
6.074214417,0.900396658,1.211041684,1.871229461,2.403920922
6.084208417,0.876096069,1.195077324,2.241768687,2.687244123
6.094201417,0.972989841,1.013992856,2.634713858,2.986068963
6.104195417,1.154941597,0.780147792,3.10973698,3.407782967
6.114188417,1.445679924,0.667533049,3.546105328,3.887216718
6.124182417,1.774382321,0.729586918,3.839009317,4.291703884
6.134176083,1.961831483,0.818732106,3.73577731,4.298271413
6.144170083,2.05132765,0.90337026,3.265910262,3.961084801
6.154163083,2.100141815,1.058990689,2.660552119,3.551139887
6.164156083,2.129957937,1.064542328,2.243455024,3.271553396
6.174150083,2.109248999,0.911976777,1.898082215,2.98049477
6.184143083,2.041744356,0.689121262,1.435684986,2.589362761
6.194137083,2.07942396,0.517573018,0.931432217,2.336546984
6.204130083,2.234455428,0.550652179,0.258488447,2.315777442
6.214124083,2.30595752,0.942412119,-0.432788683,2.528415854
6.224117083,2.308476793,1.149116162,-0.341549315,2.601189918
6.234111083,2.236579575,0.580375037,0.541686058,2.373298794
6.244104083,1.993189078,-0.456278995,1.774743971,2.707528279
6.254098083,1.646145134,-1.799958335,3.095102568,3.940723755
6.264091083,1.258298589,-3.110875432,3.879331132,5.129334394
6.274085083,0.846520633,-4.091363158,3.645443675,5.544827252
6.284078083,0.626158809,-4.666848169,2.823581262,5.490369553
6.294072083,0.899215594,-4.574112498,1.987180333,5.067541761
6.304065083,1.723220207,-3.604975972,1.274032277,4.193864314
6.314059083,2.693257643,-2.187533715,1.053872913,3.626236148
6.324052083,3.590088377,-0.839325122,0.900149614,3.795190448
6.334046083,4.136974656,0.137543761,0.41557448,4.16006968
6.344039083,4.089038597,0.597216773,-0.315494707,4.14444706
6.354033083,3.605162206,0.629935745,-1.138578603,3.832802475
6.364026083,2.921404595,0.313868011,-1.963674526,3.533997111
6.374019083,2.294196869,-0.165858903,-2.626178677,3.491083341
6.384013083,1.721448647,-0.50644372,-3.110836841,3.591263919
6.394006083,1.192242009,-0.660007098,-3.569923376,3.82117826
6.404000083,0.783889936,-0.707215909,-3.91780698,4.05756692
6.413993083,0.452872773,-0.757460449,-4.093092472,4.187152501
6.423987083,0.177803595,-0.871023755,-4.104867595,4.200027913
6.433980083,0.018775483,-0.904660156,-4.081486918,4.180585842
6.443974083,-0.050267417,-0.895695643,-4.030503291,4.12913481
6.453967083,-0.096397855,-0.83202078,-4.019779497,4.106114749
6.463961083,-0.275365704,-0.697663752,-4.080182405,4.148547871
6.473954083,-0.696498913,-0.658922878,-4.259068027,4.365655799
6.483948083,-1.537528864,-0.876113464,-4.463303668,4.80131747
6.493941083,-2.188629045,-1.191302508,-4.436000095,5.087965763
6.503935083,-2.428401432,-1.181993302,-4.126212271,4.931517959
6.513928083,-2.270725999,-0.820414057,-3.608740118,4.341921352
6.523922083,-1.751336105,-0.28997161,-2.898645478,3.399030346
6.533915083,-1.094694372,0.39031407,-2.013113319,2.324505555
6.543909083,-0.611541428,1.224549776,-1.18059494,1.80757005
6.553902083,-0.260754682,1.896364595,-0.067768645,1.915407077
6.563896083,-0.016637814,2.449612645,1.428901631,2.835954654
6.573889083,0.00691214,2.695399185,2.617302019,3.757059276
6.583882083,0.015498922,2.851547325,3.298975682,4.360596624
6.593876083,0.08448525,2.758433924,3.385246671,4.367606953
6.603869083,-0.244382185,2.540415226,3.656739911,4.459280093
6.613863083,-0.637431437,2.267771255,3.995794804,4.638478351
6.623856083,-0.887967817,1.862676301,4.454729896,4.909446842
6.633850083,-1.329586673,1.516413984,4.902221403,5.300857174
6.643843083,-1.938688496,1.421007597,5.387609884,5.89950133
6.653837083,-2.091655458,1.332341881,5.403607281,5.945513358
6.663830083,-2.087091853,1.507928504,5.204901937,5.806961765
6.673824083,-2.201348785,1.956475288,4.681599525,5.53092272
6.683817083,-2.357715757,2.409335416,3.421468418,4.803141355
6.693811083,-2.45131974,2.812068095,1.957127983,4.212724223
6.703804083,-2.173048992,3.148228616,0.556912792,3.865700092
6.713798083,-1.723797327,3.394847507,-0.631556593,3.859446923
6.723791083,-1.549806701,3.644065486,-0.972621759,4.077634996
6.733785083,-1.743945663,3.680272615,-0.051658396,4.072888605
6.743778083,-2.084106118,2.805486469,1.533404823,3.816488306
6.753771083,-2.310460607,1.120681153,3.309645681,4.189022439
6.763765083,-2.543817136,-0.542826704,4.495480312,5.193747172
6.773758083,-2.740276273,-1.579274768,4.797924033,5.746590108
6.783752083,-2.665800872,-2.062470835,4.042799985,5.263507572
6.793745083,-2.452101512,-2.126409554,2.860747334,4.326464461
6.803739083,-2.171581195,-1.866503157,1.886735693,3.429193855
6.813732083,-1.638319221,-1.381356166,1.223362645,2.467559703
6.823726083,-0.962259908,-0.891922143,0.896912595,1.589314771
6.833719083,-0.513635649,-0.497703887,0.915965163,1.16212001
6.843713083,-0.125404576,-0.301393269,0.735233574,0.804445535
6.853706083,0.051903687,-0.420742834,0.292520996,0.515060247
6.863700083,0.005132832,-0.725208815,-0.206860456,0.75415212
6.873693083,0.023544179,-1.115884389,-0.794342492,1.369938792
6.883687083,0.11773091,-1.336254253,-1.465866559,1.987007993
6.893680083,0.276070586,-1.358234814,-2.049525685,2.474181139
6.903674083,0.567835099,-1.238885248,-2.448166044,2.801926183
6.913667083,0.86430472,-0.953776183,-2.792534301,3.074891783
6.923660083,1.140655534,-0.488991828,-3.161774275,3.396619587
6.933654083,1.36129013,-0.048927746,-3.376754175,3.641150025
6.943647083,1.486442326,0.189124828,-3.448128213,3.759636573
6.953641083,1.61890281,0.258867639,-3.659994471,4.010413731
6.963634083,1.575061264,0.188475202,-3.897339971,4.207802246
6.973628083,1.495165787,0.115601208,-4.057403407,4.325668361
6.983621083,1.371031591,-0.002218141,-4.003240648,4.231508978
6.993615083,1.030813833,-0.044972105,-3.88691614,4.021531639
7.003608083,0.706672337,-0.038844515,-3.9704442,4.033028866
7.013602083,0.526324838,-0.09804465,-3.986162685,4.021955189
7.023595083,0.308609391,-0.129715509,-3.959187725,3.973315154
7.033589083,0.101360533,0.128856553,-3.833986559,3.837490183
7.043582083,0.122576132,0.657133484,-3.326286857,3.392791414
7.053576083,0.332688006,1.202358569,-2.505699722,2.799085303
7.063569083,0.499152973,1.483140695,-1.492202418,2.162296943
7.073562083,0.593474335,1.448373443,-0.239808932,1.583510575
7.083556083,0.494512476,1.144511772,1.011605145,1.605551231
7.093549083,0.157472461,0.567766979,1.957993371,2.044723688
7.103543083,-0.325265769,-0.050614376,2.635343018,2.65582237
7.113536083,-0.6329274,-0.67269234,3.141647574,3.274608612
7.123530083,-0.514684786,-1.226962776,3.833977788,4.058290744
7.133522333,-0.181340302,-1.557873374,4.711000494,4.965216955
7.143516333,0.248523604,-1.648435342,5.173722244,5.435669684
7.153509333,0.589357823,-1.620391511,4.972906054,5.263345506
7.163503333,0.928539454,-1.395107355,4.189435875,4.512192704
7.173496333,1.24227064,-0.898144896,3.50779788,3.828125724
7.183490333,1.309776014,-0.477992923,3.202290217,3.492657022
7.193483333,1.30242811,-0.295132655,2.935627363,3.225109344
7.203477333,1.25599347,-0.29190353,2.44047754,2.76019164
7.213470333,1.282747113,-0.35876995,1.593581443,2.076934724
7.223463333,1.312480059,-0.313399357,0.788649058,1.562942865
7.233457333,1.320096496,-0.197977074,0.427605711,1.401676255
7.243450333,1.411107676,-0.224696803,0.603161929,1.550973191
7.253444333,1.649810315,-0.478640502,1.090825562,2.034913072
7.263437333,1.663379218,-1.003808468,1.455519326,2.42754987
7.273431333,1.305154521,-1.677889229,1.53256107,2.620588488
7.283424333,0.725481588,-2.310198944,1.375936382,2.785057203
7.293418333,0.148914257,-2.88180959,1.048433248,3.070214039
7.303411333,-0.144796666,-3.255855683,0.623264072,3.318135079
7.313405333,-0.022428896,-3.219310585,0.242632552,3.228518895
7.323398333,0.2091065,-2.756855761,-0.142558041,2.768447581
7.333392333,0.6703555,-2.122313579,-0.602990021,2.305902945
7.343385333,1.310327114,-1.401279092,-1.115931167,2.219423936
7.353378333,1.839300302,-0.615085279,-1.614663579,2.523587521
7.363372333,2.196752289,0.055830969,-1.888099263,2.897198051
7.373365333,2.309291164,0.428875726,-1.983326433,3.074141149
7.383359333,2.239605071,0.479133422,-2.133111048,3.129786327
7.393352333,2.018908202,0.260085614,-2.313705227,3.081698676
7.403346333,1.817109972,-0.031475269,-2.326616464,2.952291231
7.413339333,1.508439551,-0.156315663,-2.318878843,2.770744224
7.423333333,1.152614113,-0.153661027,-2.53287875,2.787042477
7.433326333,0.845359449,-0.204662196,-2.716930972,2.852758861
7.443320333,0.660950546,-0.247187826,-2.772830354,2.861214011
7.453313333,0.417857489,-0.234322197,-2.841995314,2.882091105
7.463307333,0.221410887,-0.21922761,-2.905455145,2.922114496
7.473300333,0.066166581,-0.045302765,-3.061534873,3.062584878
7.483293333,-0.082211962,0.2358606,-3.265066509,3.274606593
7.493287333,-0.233246675,0.499312163,-3.39985594,3.444232434
7.503280333,-0.468956307,0.727452099,-3.377809598,3.48693336
7.513274333,-0.689805971,0.822590683,-3.077519406,3.259388502
7.523267333,-0.931685475,0.790036603,-2.635921893,2.905215978
7.533261333,-1.135949621,0.670279486,-2.108370309,2.486942197
7.543254333,-1.262441341,0.68996443,-1.458193257,2.048447371
7.553248333,-1.257039099,0.87277295,-0.583948563,1.637948669
7.563241333,-1.114889266,1.240756065,0.121698099,1.672502352
7.573235333,-1.048975943,1.542760076,0.454566638,1.920179681
7.583228333,-1.023097628,1.700105141,0.624607762,2.080197371
7.593222333,-1.155039465,1.745660505,0.794731917,2.238983159
7.603215333,-1.508396282,1.664184525,0.79448341,2.382430139
7.613209333,-1.933554056,1.41754283,0.956536653,2.581282884
7.623202333,-2.325377439,0.89145305,1.422993604,2.868271181
7.633195333,-2.644927774,0.281281478,2.123674811,3.403638774
7.643189333,-2.857047801,-0.235679628,2.764156594,3.982314491
7.653182333,-2.987881005,-0.59735886,3.413448962,4.575576939
7.663176333,-2.980030826,-0.69723632,4.153394222,5.159205925
7.673169333,-2.958299941,-0.638917068,4.685110193,5.5776349
7.683163333,-2.836591317,-0.512153818,4.668110583,5.486329214
7.693156333,-2.666756015,-0.353505701,4.216533626,5.001570728
7.703150333,-2.448173791,-0.098251642,3.478020934,4.254390428
7.713143333,-2.106134334,0.299640274,2.210811188,3.068105643
7.723137333,-1.407267956,0.912538987,0.514381315,1.754342794
7.733130333,-0.509582651,1.64609441,-0.231755562,1.738681088
7.743124333,0.308276319,2.134465848,0.930969118,2.348974721
7.753117333,1.10279547,2.021018754,3.164324246,3.913262397
7.763110333,1.556987813,1.232920504,5.307096063,5.666530918
7.773104333,1.484089845,0.047573239,6.764139758,6.925198376
7.783097333,0.947266185,-1.158864933,6.798203883,6.961024148
7.793091333,0.207883938,-2.050357159,5.556000924,5.92590301
7.803084333,-0.537574223,-2.53777784,3.647706547,4.476054676
7.813078333,-0.846966191,-2.448119558,1.727673301,3.113759164
7.823071333,-0.647248912,-1.772255981,0.373137143,1.923292423
7.833065333,-0.053069037,-0.84583395,-0.562698612,1.017291071
7.843058333,0.587969182,0.028208138,-1.210751955,1.346262885
7.853052333,0.88149685,0.58113196,-1.727576821,2.024666077
7.863045333,0.940496937,0.777571508,-2.128890527,2.453839199
7.873039333,0.857342002,0.619595821,-2.594658092,2.801996592
7.883032333,0.610796895,0.173919582,-2.975846851,3.042858089
7.893025333,0.272597705,-0.332052267,-3.174456301,3.203395234
7.903019333,0.01150542,-0.712426509,-3.198341008,3.276746726
7.913012333,-0.07513694,-0.910441006,-3.232932551,3.359523964
7.923006333,-0.089895386,-0.910105083,-3.253427042,3.37952067
7.932999333,-0.057465193,-0.794186956,-3.297198713,3.391983863
7.942993333,-0.006929024,-0.544688019,-3.443738708,3.486555512
7.952986333,0.052949096,-0.208046857,-3.590950549,3.597361942
7.962980333,0.013936619,0.090685929,-3.659714974,3.660864906
7.972973333,-0.127598086,0.251941027,-3.641852315,3.652785764
7.982967333,-0.321851507,0.260447264,-3.445069535,3.469859546
7.992960333,-0.512774427,0.084113367,-3.071276334,3.114923914
8.002954333,-0.680371927,-0.162833261,-2.732230212,2.82037277
8.012947333,-0.763430675,-0.309972304,-2.603185671,2.730473377
8.022940333,-0.668374683,-0.202968257,-2.658997344,2.749215835
8.032934333,-0.491740238,0.121228568,-2.697707081,2.744836666
8.042927333,-0.294194031,0.515213374,-2.541033862,2.609376944
8.052921333,0.028177001,0.96177722,-2.305071813,2.497832145
8.062914333,0.468672388,1.271846588,-1.914737424,2.34594692
8.072908333,0.936832413,1.479635582,-1.073686203,2.054209943
8.082901333,1.106261846,1.536505894,-0.2272228,1.9069074
8.092895333,1.012151421,1.367890321,0.287503501,1.725755687
8.102888333,0.824773084,1.014007474,0.846154085,1.557060864
8.112881333,0.636691326,0.574533961,1.593049346,1.809218432
8.122875333,0.577335801,0.088905452,2.245560021,2.320293218
8.132868667,0.522147879,-0.316967913,2.752198454,2.819167145
8.142862667,0.522854515,-0.613597163,3.044553389,3.149473553
8.152855667,0.673142722,-0.959122292,3.096776626,3.31105152
8.162849667,0.809945787,-1.170713438,3.021097283,3.339702221
8.172842667,0.970235802,-1.169753033,2.80372938,3.189134382
8.182836667,1.157914175,-0.994652021,2.633429224,3.043854031
8.192829667,1.345808311,-0.700056725,2.531017581,2.950818433
8.202823667,1.496908696,-0.312035786,2.261079701,2.729575679
8.212816667,1.460966592,0.009335665,1.835341591,2.345845112
8.222810667,1.312703568,0.179812991,1.49729008,1.999350133
8.232803667,1.129015481,0.187495355,1.243415671,1.689944673
8.242796667,0.944997027,0.12468398,0.979174733,1.366509654
8.252790667,0.929369758,0.198561211,0.717167432,1.190581298
8.262783667,1.116766588,0.267703951,0.546771381,1.271924511
8.272777667,1.262486657,0.080060954,0.939549907,1.57576532
8.282770667,1.204014208,-0.465110045,1.900536876,2.297393737
8.292764667,0.773295439,-1.215968841,3.127129523,3.44318241
8.302757667,0.132637801,-1.929201389,4.014641549,4.456092184
8.312751667,-0.441387452,-2.425114127,4.144907573,4.82247449
8.322744667,-0.740703206,-2.693048312,3.610215955,4.56451637
8.332737667,-0.722031438,-2.788488905,2.715830526,3.958880551
8.342731667,-0.411863253,-2.545646438,1.916703258,3.213051276
8.352724667,0.275648271,-1.883280865,1.37570834,2.348468059
8.362718667,1.168885598,-1.03648344,0.738315641,1.727918242
8.372711667,1.918970077,-0.172454416,0.219785727,1.939198919
8.382705667,2.324970619,0.492783308,-0.325841355,2.398853133
8.392698667,2.385406709,0.805622356,-1.042241047,2.724969531
8.402692667,2.332408423,0.864180174,-1.741510152,3.036411374
8.412685667,2.04549593,0.789795405,-2.311140638,3.185781133
8.422679667,1.57524399,0.592489445,-2.776204782,3.246498169
8.432672667,1.033128161,0.320447006,-3.127045907,3.308845144
8.442665667,0.523432513,0.026412312,-3.290258068,3.331737889
8.452659667,0.15760702,-0.287582146,-3.395932458,3.411729872
8.462652667,-0.140279601,-0.541102214,-3.547985208,3.591750132
8.472646667,-0.373310075,-0.636425862,-3.659790988,3.733425822
8.482639667,-0.447198342,-0.556591049,-3.872364174,3.937636887
8.492633667,-0.427740416,-0.327106546,-4.150060725,4.184849409
8.502626667,-0.292046056,0.019008129,-4.249384453,4.25945072
8.512620667,-0.144200012,0.434382488,-4.097079688,4.122565192
8.522613667,-0.073743914,0.805575724,-3.904903929,3.987814578
8.532607667,-0.043199522,1.081904465,-3.702589098,3.857661144
8.542600667,-0.148021899,1.249939263,-3.508766178,3.727693488
8.552593667,-0.375984445,1.330549855,-3.258935704,3.540111459
8.562587667,-0.508571449,1.35998737,-2.725741557,3.088345447
8.572580667,-0.576271681,1.31518732,-2.050060705,2.502909433
8.582574667,-0.632126258,1.280604547,-1.487953831,2.062410778
8.592567667,-0.636757326,1.419755416,-0.869670417,1.782552094
8.602561667,-0.640175316,1.633164754,-0.274384688,1.775482612
8.612554667,-0.622821949,1.725551638,0.304428266,1.859600012
8.622548667,-0.762050951,1.683030686,0.960483524,2.082268605
8.632541667,-1.001618174,1.516971808,1.681813588,2.476477211
8.642535667,-1.22749955,1.22785126,2.28253489,2.867810905
8.652528667,-1.423855191,0.937916195,2.679390094,3.175874945
8.662522667,-1.63285836,0.682930815,3.024412655,3.504239265
8.672515667,-1.867748614,0.620107453,3.404569965,3.932443869
8.682508667,-1.956010434,0.722301872,3.604064684,4.163769813
8.692502667,-1.973490831,0.718064687,3.591028317,4.160020111
8.702495667,-1.947880904,0.663303758,3.40270178,3.976504909
8.712489667,-1.882976956,0.755195091,3.410021909,3.967892547
8.722482667,-1.847738565,1.05023536,3.845068787,4.393368422
8.732476667,-1.846875077,1.517439293,3.770270035,4.464135492
8.742469667,-1.867221487,1.797334104,2.882050495,3.875969688
8.752463667,-1.824509916,1.834123031,2.071850354,3.314424176
8.762456667,-1.636564325,1.844575221,1.762403423,3.030984388
8.772450667,-1.45169817,1.802610339,1.642889258,2.838294687
8.782443667,-1.286798795,1.570649248,2.038677346,2.877324368
8.792436667,-1.137400096,0.909615379,2.925894672,3.268323538
8.802430667,-1.288076266,-0.06077976,3.961817803,4.166393518
8.812423667,-1.600577052,-0.91309418,4.65818318,5.009416974
8.822417667,-1.911407727,-1.575736033,4.502492293,5.138955184
8.832410667,-2.145766177,-1.926955765,3.591758049,4.606321405
8.842404667,-2.128185061,-1.814802369,2.471223369,3.732241181
8.852397667,-1.822206698,-1.445456852,1.527923643,2.782864248
8.862391667,-1.397220101,-1.079146918,0.82144843,1.947192749
8.872384667,-0.988783463,-0.798245509,0.387292668,1.328489457
8.882378667,-0.65476178,-0.645206626,0.219253045,0.945027236
8.892371667,-0.392573434,-0.693038896,0.267724709,0.840293599
8.902364667,-0.102473185,-0.937008415,0.154081149,0.955105504
8.912358667,0.097477324,-1.142586577,-0.248844634,1.173426421
8.922351667,0.278173829,-1.256285393,-0.708108925,1.468690545
8.932345667,0.49023553,-1.316783317,-1.133420774,1.805240103
8.942338667,0.78154323,-1.327563536,-1.526016866,2.168400848
8.952332667,0.930177332,-1.377812461,-1.959978501,2.570041394
8.962325667,0.926595254,-1.457270567,-2.504636698,3.042272384
8.972319667,0.870647341,-1.521825582,-3.031990646,3.502420188
8.982312667,0.715583421,-1.585817218,-3.609701985,4.007096742
8.992305667,0.507302603,-1.677755913,-4.135703471,4.491799643
9.002299667,0.335054301,-1.77295063,-4.653747482,4.99129051
9.012292667,0.171525732,-1.80144382,-5.134940586,5.444468361
9.022286667,0.033907273,-1.712021474,-5.59197358,5.848276305
9.032279667,-0.041869207,-1.55694162,-5.959323149,6.159492887
9.042273667,-0.015004832,-1.41155148,-6.142443325,6.30256398
9.052266667,0.080466604,-1.243077117,-6.29930424,6.421288773
9.062260667,0.207733153,-1.007012157,-6.216695947,6.30115347
9.072253667,0.201226737,-0.731069772,-5.909045865,5.95749765
9.082247667,0.108014226,-0.529598694,-5.327100558,5.354450691
9.092240667,0.011918745,-0.416146923,-4.371794159,4.391571983
9.102233667,-0.072960387,-0.40511615,-3.392536395,3.417417959
9.112227667,-0.119641414,-0.43924284,-2.4005241,2.44331011
9.122220667,0.111903428,-0.476630521,-1.132398096,1.233703562
9.132214042,0.587166871,-0.31404986,-0.115157404,0.675761405
9.142207042,0.993704991,0.079853085,0.845863479,1.307406268
9.152201042,1.234386108,0.459224238,2.164552696,2.533749068
9.162194042,1.341643924,0.628089779,3.544046524,3.841193949
9.172188042,1.332131089,0.57168666,4.673269581,4.892938529
9.182181042,1.292552894,0.282844147,5.161400991,5.328297475
9.192174042,1.172763837,-0.070770605,4.863488277,5.003389023
9.202168042,1.121084976,-0.334884951,4.17708831,4.337861939
9.212161042,1.213912083,-0.291620525,3.572178063,3.784056182
9.222155042,1.460204846,-0.025602618,3.417879982,3.716820854
9.232148042,1.665177675,0.262365736,3.413019192,3.806619559
9.242142042,1.822188425,0.39221807,3.360123525,3.842477817
9.252135042,1.887044718,0.347894421,3.039775629,3.594746746
9.262129042,1.817432154,0.125542936,2.311613093,2.943191423
9.272122042,1.699063751,-0.044648169,1.411610829,2.20940178
9.282115042,1.626326435,-0.054579811,0.531137681,1.711731248
9.292109042,1.76858276,0.128445786,-0.276749886,1.794707162
9.302102042,2.002798392,0.415886575,-0.737975918,2.174573866
9.312096042,2.215177743,0.586052099,-0.305841538,2.311711172
9.322089042,2.356246352,0.25571789,1.109263587,2.616821395
9.332083042,2.364927421,-0.564428511,2.508750799,3.493607279
9.342076042,1.980729684,-1.523040926,3.446561744,4.25696272
9.352070042,1.337586541,-2.459748793,3.857317534,4.766382322
9.362063042,0.809632303,-3.154499754,3.592131101,4.848688381
9.372057042,0.701958312,-3.447412514,2.514320857,4.324258073
9.382050042,0.931713395,-3.206576811,0.900596926,3.458511171
9.392043042,1.446392699,-2.618031752,-0.7246162,3.077533221
9.402037042,2.195695843,-1.787971835,-2.463185787,3.753026477
9.412030042,2.927825131,-0.860959528,-3.992836112,5.025549873
9.422024042,3.572851954,0.027731882,-5.01989311,6.161604254
9.432017042,3.895688133,0.80817949,-5.357676818,6.67339801
9.442011042,3.72004216,1.292073568,-5.029317652,6.387660278
9.452004042,3.360287247,1.361761415,-4.296079148,5.621585237
9.461998042,2.929785994,1.110074596,-3.356903463,4.591809277
9.471991042,2.432281352,0.627300551,-2.361138425,3.447386433
9.481984042,1.829461338,0.030889086,-1.568878126,2.410240963
9.491978042,1.061256923,-0.554498477,-0.681530406,1.37775851
9.501971042,0.151765213,-1.020463677,0.472490693,1.134736203
9.511965042,-0.656620098,-1.445642209,1.456551359,2.154663132
9.521958042,-1.149292017,-1.644898508,1.72631967,2.647025282
9.531952042,-1.491025666,-1.541048596,1.20022112,2.457339831
9.541945042,-1.698420558,-1.160817976,0.014340296,2.057264302
9.551939042,-1.712565265,-0.532931753,-1.260012408,2.191923198
9.561932042,-1.771489996,0.037488838,-2.167234229,2.799372505
9.571925042,-1.745756984,0.479533225,-2.811683933,3.344127106
9.581919042,-1.506570196,0.935926241,-3.355784306,3.79565541
9.591912042,-1.381249747,1.357341944,-3.720358202,4.194197559
9.601906042,-1.351129862,1.70318253,-3.689514724,4.282394369
9.611899042,-1.30413959,1.921642693,-3.329812728,4.059697466
9.621893042,-1.204967012,1.967933637,-2.929887736,3.729470532
9.631886042,-1.155561256,2.031461004,-2.713087013,3.580921218
9.641880042,-1.187512342,2.212258666,-2.560888082,3.586421858
9.651873042,-1.225759565,2.40736812,-2.353458692,3.582830667
9.661866042,-1.397092193,2.472082325,-1.971822621,3.457042387
9.671860042,-1.602960377,2.374435139,-1.513732451,3.240186744
9.681853042,-1.925478759,2.17075396,-1.204384337,3.141684713
9.691847042,-2.314001973,1.87596439,-0.703525878,3.060848932
9.701840042,-2.546836638,1.401908544,0.341490843,2.92717277
9.711834042,-2.698459033,0.92993935,2.167718963,3.584058294
9.721827042,-2.756006745,0.566364451,4.374637075,5.201325928
9.731821042,-2.825557329,0.322179609,6.033347729,6.669996907
9.741814042,-2.783292485,0.231595056,6.990875486,7.528126817
9.751807042,-2.658950274,0.228740372,7.611079125,8.065411593
9.761801042,-2.415446194,-0.008037071,8.188615631,8.537439363
9.771794042,-2.054498595,-0.078980242,8.253892193,8.506111843
9.781788042,-1.549980802,0.490554423,7.728802287,7.897940803
9.791781042,-1.033180348,1.400716005,6.917827975,7.133429108
9.801775042,-0.578155873,2.153079289,6.00093252,6.401656485
9.811768042,-0.387198966,2.714615475,5.291459439,5.959748587
9.821762042,-0.45332659,2.770499654,5.053386546,5.780820782
9.831755042,-0.723252629,2.158075881,5.24283224,5.715564344
9.841748042,-0.999644081,1.313792466,5.810078816,6.040062482
9.851742042,-1.021020113,0.446218349,6.461810058,6.557177907
9.861735042,-0.968613492,-0.206927553,6.847008253,6.918276745
9.871729042,-0.915176958,-0.578944516,6.484931118,6.57472868
9.881722042,-0.833101565,-0.82679834,5.667307352,5.787575169
9.891716042,-0.692681851,-1.015552601,4.661795005,4.82115006
9.901709042,-0.472360373,-0.973155025,3.351878951,3.522108392
9.911702042,-0.343307353,-0.676569775,2.093352905,2.226596727
9.921696042,-0.418716482,-0.375657878,1.146103969,1.276713218
9.931689042,-0.547602929,-0.249608573,0.623130755,0.86629403
9.941683042,-0.625726261,-0.374255423,0.658553188,0.982493144
9.951676042,-0.624838873,-0.688999786,1.018748689,1.379490201
9.961670042,-0.59568546,-1.089805661,1.449192638,1.908579799
9.971663042,-0.528406812,-1.528799117,1.780356714,2.405433543
9.981657042,-0.414699298,-1.961566458,1.711847227,2.636311705
9.991650042,-0.357784548,-2.249691664,1.096725987,2.528226702
10.00164304,-0.337075464,-2.363773765,0.253246418,2.40107893
10.01163704,-0.325240919,-2.333792898,-0.65519981,2.445742778
10.02163004,-0.306315236,-2.281582671,-1.657704349,2.836799643
10.03162404,-0.21859231,-2.239126622,-2.727717916,3.53580481
10.04161704,-0.128023398,-2.212595466,-3.669593845,4.286943862
10.05161104,-0.095517703,-2.234829942,-4.559715484,5.078837839
10.06160404,-0.00915124,-2.29083662,-5.473327142,5.933407635
10.07159804,-0.002983798,-2.296071486,-6.304683094,6.709767663
10.08159104,-0.031277999,-2.344659802,-7.004093117,7.386184961
10.09158404,-0.040968516,-2.3830266,-7.572174675,7.938408122
10.10157804,0.020336251,-2.435356256,-8.007725583,8.369889048
10.11157104,0.155831367,-2.455936409,-8.126908795,8.491322254
10.12156504,0.337256289,-2.338349194,-7.927595925,8.272145786
10.13155829,0.59845525,-2.151963056,-7.635157374,7.955169502
10.14155229,0.786899718,-1.905489467,-7.275103376,7.561562696
10.15154529,0.849692893,-1.633074707,-6.903474814,7.144709618
10.16153929,0.852131255,-1.39114382,-6.639722704,6.837201649
10.17153229,0.921171085,-1.058389302,-6.526562124,6.675684028
10.18152529,0.882559142,-0.747677326,-6.507934064,6.609927217
10.19151929,0.843501204,-0.424696137,-6.425368456,6.494399193
10.20151229,0.855360673,-0.14476098,-6.093662344,6.155105066
10.21150629,0.840762222,-0.025894979,-5.448398123,5.512947829
10.22149929,0.950312146,0.052623771,-4.514864416,4.614093967
10.23149329,1.036851376,0.204796974,-3.218244345,3.38734398
10.24148629,1.091132833,0.388011583,-1.8392066,2.173431565
10.25147929,1.079413039,0.253839618,-0.493658783,1.213781717
10.26147329,0.817690717,-0.082596014,0.753118452,1.114732081
10.27146629,0.698619187,-0.306697863,2.272504576,2.397166952
10.28146029,0.852335104,-0.388179106,3.743894999,3.859262612
10.29145329,1.069633644,-0.248233893,4.694510761,4.821220539
10.30144729,1.330023314,0.169374834,5.227562236,5.396763547
10.31144029,1.545125859,0.548127643,5.653086923,5.886021542
10.32143329,1.609223329,0.817308601,5.906848481,6.176443318
10.33142729,1.459916724,0.927807675,5.758411065,6.012610241
10.34142029,1.062975347,0.949915705,5.394708989,5.579887231
10.35141429,0.640861998,0.928857981,5.097231308,5.220655922
10.36140729,0.428694901,0.932745794,5.210705298,5.310860923
10.37140129,0.470032012,1.143358117,5.892172555,6.020456402
10.38139429,0.853302307,1.430979146,6.807026746,7.007955427
10.39138829,1.197568823,1.604339735,7.74306657,7.997696979
10.40138129,1.35161752,1.264104289,8.825384433,9.017329979
10.41137429,1.358308635,0.4917197,9.382408322,9.492964581
10.42136829,1.177422606,-0.280605833,8.933306492,9.014933639
10.43136129,0.986894373,-0.789315495,7.67357592,7.776936855
10.44135529,1.040245904,-0.987126069,5.939192355,6.10987195
10.45134829,1.470509248,-0.906193442,4.205632077,4.546528915
10.46134229,2.085499071,-0.684575783,2.645926479,3.437859408
10.47133529,2.73505851,-0.196945771,1.444251741,3.09922503
10.48132829,3.366966521,0.369476494,0.69291669,3.457326998
10.49132229,3.807070071,0.731183792,0.258538733,3.885261193
10.50131529,3.810456194,0.813439791,-0.198240491,3.90135361
10.51130929,3.503984326,0.633114584,-0.662414104,3.621813451
10.52130229,3.063420015,0.224473732,-1.138089775,3.275695191
10.53129629,2.527946331,-0.272748344,-1.734316322,3.077784498
10.54128929,1.941579944,-0.75803216,-2.482817228,3.241716648
10.55128229,1.449787008,-1.045293001,-3.421086595,3.859838509
10.56127629,1.005076875,-1.216519064,-4.392847643,4.667677
10.57126929,0.48628252,-1.469285133,-5.296914892,5.518385349
10.58126329,-0.021110276,-1.808638234,-6.020293821,6.286139959
10.59125629,-0.424957215,-2.16149314,-6.51295156,6.875403934
10.60125029,-0.802691878,-2.401354697,-6.951248905,7.398018652
10.61124329,-1.095970892,-2.477241616,-7.310943884,7.796651762
10.62123729,-1.185351212,-2.385510789,-7.531137747,7.988351205
10.63123029,-1.224209833,-2.1485629,-7.45076192,7.850405432
10.64122329,-1.180916464,-1.852835583,-7.227315252,7.553916146
10.65121729,-1.017216864,-1.558670642,-7.328199018,7.560865371
10.66121029,-0.793489968,-1.128719028,-7.461568744,7.588059113
10.67120429,-0.690592129,-0.596603692,-7.088559655,7.147064533
10.68119729,-0.592075316,-0.196958781,-6.675709977,6.70480795
10.69119129,-0.612345566,0.072790526,-6.544679137,6.573666447
10.70118429,-0.639474308,0.456695901,-6.462425185,6.510025945
10.71117729,-0.611187087,0.966162339,-6.337781258,6.440069145
10.72117129,-0.626538074,1.390734808,-6.187261648,6.372511276
10.73116429,-0.552196245,1.656710322,-5.729084939,5.989325841
10.74115829,-0.474535391,1.714984258,-4.184499655,4.547130107
10.75115129,-0.37636371,1.573557945,-1.513143051,2.215250808
10.76114529,-0.413189693,1.294830531,1.167153361,1.791524154
10.77113829,-0.656667753,0.841184829,3.393367285,3.557210421
10.78113129,-0.889966322,0.264920823,4.980076495,5.065904163
10.79112529,-1.21154301,-0.269975156,5.899066422,6.028242505
10.80111829,-1.521569766,-0.535230732,6.624012989,6.81756515
10.81111229,-1.802767922,-0.647710404,6.633691301,6.904734696
10.82110529,-1.901435885,-0.468109666,5.966947333,6.280051398
10.83109929,-1.754380019,-0.099411291,5.508540829,5.782019882
10.84109229,-1.434361468,0.422902796,5.403220196,5.606338206
10.85108529,-1.222444194,0.980851715,5.168747433,5.401147093
10.86107929,-1.258606737,1.298610756,4.840177183,5.166990998
10.87107229,-1.115968662,1.548233362,4.507362438,4.894765444
10.88106629,-0.914940511,1.790413924,4.243334339,4.695592026
10.89105929,-0.73680801,1.930066777,4.138680874,4.625659216
10.90105329,-0.516244311,1.777687167,4.321834379,4.701588269
10.91104629,-0.09487312,1.531478458,4.857714736,5.094292849
10.92103929,0.392307386,1.267037838,5.760452912,5.911184968
10.93103329,0.681435682,0.78601211,7.050465045,7.126796403
10.94102629,0.801370188,0.085567277,8.068109779,8.108261919
10.95102029,0.701676476,-0.586547212,8.13533054,8.186573795
10.96101329,0.259248293,-0.928498962,6.882817771,6.950000033
10.97100729,-0.311877765,-1.050992282,4.862461506,4.984514461
10.98100029,-0.66838455,-1.027285331,3.052691544,3.289525607
10.99099329,-0.754237463,-0.911951049,1.697332098,2.069170152
11.00098729,-0.650946545,-0.665241233,0.708073842,1.169463923
11.01098029,-0.517825471,-0.401374517,0.178295054,0.678994733
11.02097429,-0.369820091,-0.325428687,-0.037483576,0.49404023
11.03096729,-0.348205858,-0.462300896,-0.269149091,0.638287295
11.04096129,-0.422613505,-0.793092065,-0.466162251,1.012375643
11.05095429,-0.436426748,-1.099308849,-0.601106633,1.326754474
11.06094729,-0.346569223,-1.340123794,-0.799979208,1.598752246
11.07094129,-0.155272739,-1.38350531,-1.069349324,1.755478437
11.08093429,0.028878448,-1.304273638,-1.44117786,1.94395404
11.09092829,0.152405483,-1.160332876,-2.115309784,2.417464643
11.10092129,0.209141894,-0.972901402,-2.965567446,3.128077324
11.11091529,0.146254943,-0.872804817,-3.846589648,3.947078752
11.12090829,0.016173252,-0.884019485,-4.57911713,4.663696572
11.13090129,-0.144938589,-0.908101388,-5.130635866,5.212396734
11.14089617,-0.267460926,-0.937554398,-5.481954124,5.567976707
11.15088917,-0.257387489,-0.946026575,-5.79031055,5.872726016
11.16088317,-0.25601142,-1.056028928,-6.029374546,6.126507681
11.17087617,-0.388937636,-1.238066492,-6.305288866,6.437448936
11.18087017,-0.42436343,-1.232764383,-6.820703384,6.944190881
11.19086317,-0.349061379,-0.855083661,-7.176255026,7.235443878
11.20085617,-0.118672896,-0.34595563,-7.341977981,7.351082181
11.21085017,0.110750723,0.072409726,-7.467234111,7.468406401
11.22084317,0.319591851,0.527822894,-7.569082668,7.594191754
11.23083717,0.378981472,1.043880899,-7.277106632,7.361358246
11.24083017,0.361316558,1.326055539,-6.376789203,6.523221098
11.25082417,0.335188787,1.191634776,-5.141783583,5.288693919
11.26081717,0.308239299,0.76336409,-3.487834316,3.583674708
11.27081017,0.221712896,0.319599306,-1.207586272,1.268686301
11.28080417,0.180354955,0.001770683,0.971396182,0.987998779
11.29079717,0.410478632,-0.012068068,2.684674222,2.715900224
11.30079117,0.674489993,0.252608779,3.7910908,3.858901061
11.31078417,0.854177562,0.568527263,4.092598967,4.219266389
11.32077817,0.967235523,0.76722603,3.787066746,3.983221671
11.33077117,0.915590575,0.631597231,3.632462271,3.798947659
11.34076417,0.974302102,0.49349126,3.791973145,3.946119428
11.35075817,1.159161094,0.526163308,4.059442915,4.254360005
11.36075117,1.425995857,0.642000159,4.48769182,4.75236849
11.37074517,1.667560854,0.679349395,5.024405991,5.337314902
11.38073817,1.665643406,0.568945339,5.581421694,5.852378566
11.39073217,1.423260676,0.307810881,5.81181427,5.99146089
11.40072517,1.093262316,0.000195589,5.50150312,5.609078276
11.41071817,0.950495383,-0.199983254,4.789223376,4.886726442
11.42071217,1.05129875,-0.118701401,4.045382701,4.181439977
11.43070517,1.367232655,0.202411018,3.585341315,3.842521008
11.44069917,1.818742953,0.561477129,3.370853165,3.871141119
11.45069217,2.183711829,0.743928091,3.375184783,4.088263528
11.46068617,2.434987004,0.637489178,3.897548132,4.639658997
11.47067917,2.465117707,0.266886657,4.855432568,5.451904183
11.48067217,2.17864624,-0.356309149,5.528759916,5.953204335
11.49066617,1.557670329,-1.094857509,5.461709309,5.784057261
11.50065917,0.801386267,-1.706055998,4.337597303,4.729439436
11.51065317,0.18649592,-1.964701297,2.451987199,3.147550339
11.52064617,-0.128714247,-1.86064527,0.623213201,1.966459477
11.53064017,-0.089745478,-1.596916841,-0.871294189,1.821359715
11.54063317,0.126240509,-1.281781153,-2.157092818,2.512359253
11.55062617,0.402876082,-0.893106642,-2.8877106,3.049396845
11.56062017,0.798812177,-0.495950014,-2.887636925,3.036859286
11.57061317,1.06139331,-0.214536974,-2.555699263,2.775640574
11.58060717,1.192540144,-0.097573511,-2.170803369,2.478721415
11.59060017,1.199776658,-0.175860419,-1.853469129,2.214890229
11.60059417,1.159701815,-0.30219463,-1.819682162,2.178869676
11.61058717,1.119525524,-0.328406967,-2.007583022,2.321977202
11.62058017,1.0371509,-0.329137723,-2.213214394,2.466238347
11.63057417,0.836631456,-0.421697538,-2.436275731,2.610214636
11.64056717,0.531716044,-0.535431291,-2.763161398,2.86434452
11.65056117,0.204541743,-0.705225956,-3.072335849,3.158865072
11.66055417,-0.019893836,-0.820190694,-3.383100743,3.481160608
11.67054717,-0.122517879,-0.786856594,-3.826772849,3.908752278
11.68054117,-0.157800928,-0.668344789,-4.349933174,4.403805684
11.69053417,-0.274363236,-0.498627162,-4.859788159,4.89299961
11.70052817,-0.384887598,-0.251993506,-5.331328679,5.351140502
11.71052117,-0.427389766,0.077606731,-5.824695686,5.840870197
11.72051517,-0.337303725,0.518785146,-6.316319053,6.346557981
11.73050817,-0.384865708,0.966570475,-6.592071989,6.673664151
11.74050117,-0.750537638,1.302452084,-6.445098131,6.618079638
11.75049517,-0.9650358,1.395627173,-5.723966872,5.970164658
11.76048817,-0.899758947,1.343117422,-4.910729102,5.169989447
11.77048217,-1.008645212,1.177680396,-4.153953801,4.433917958
11.78047517,-1.25875131,1.039986653,-3.019451877,3.432654474
11.79046917,-1.402296799,0.990099963,-1.216864049,2.104160727
11.80046217,-1.279305442,0.906842775,1.040140142,1.881722017
11.81045517,-0.994573376,0.855316819,3.440895792,3.682459357
11.82044917,-0.80401196,0.913069621,5.233756192,5.373298358
11.83044217,-0.767561952,0.962045607,5.968113853,6.093690676
11.84043617,-0.935150243,0.906073135,5.959150656,6.09975008
11.85042917,-1.321448664,0.714759841,5.404238781,5.609180422
11.86042317,-1.701456578,0.427626615,4.838908921,5.147121386
11.87041617,-1.967410019,0.337566192,4.502112224,4.924801274
11.88040917,-2.069063863,0.47975118,3.977046291,4.508667616
11.89040317,-2.035592647,0.699548748,3.173653479,3.834720626
11.90039617,-1.841194069,0.947911864,2.490037955,3.238645013
11.91039017,-1.673084718,1.146235239,2.211314049,3.000496212
11.92038317,-1.575167976,1.187184606,1.975327442,2.791501378
11.93037617,-1.547082484,1.198277213,1.629392715,2.546419665
11.94037017,-1.274073354,1.241607127,1.650742069,2.426891128
11.95036317,-0.874491008,1.299756517,2.027208617,2.561967272
11.96035717,-0.535042013,1.466092115,2.409667976,2.870922465
11.97035017,-0.26943692,1.39033632,2.831367999,3.165797859
11.98034417,-0.137784886,0.900013373,3.450238473,3.568354561
11.99033717,-0.106274241,0.350736752,3.987887029,4.004691429
12.00033017,-0.273038257,-0.196480041,4.639162772,4.651342336
12.01032417,-0.662769542,-0.904685006,5.112452779,5.234012977
12.02031717,-1.162538665,-1.611372035,4.801368628,5.196263723
12.03031117,-1.523921809,-1.943282653,3.531404843,4.309234888
12.04030417,-1.584877278,-1.873821532,1.899077995,3.103150069
12.05029817,-1.366508624,-1.482121672,0.621750813,2.109645596
12.06029117,-0.95961989,-1.035958799,-0.341093817,1.452730518
12.07028417,-0.611872161,-0.646912259,-0.958735206,1.308455657
12.08027817,-0.443392901,-0.371103189,-1.170489782,1.305511843
12.09027117,-0.312538939,-0.297760394,-1.105281633,1.186587262
12.10026517,-0.184483089,-0.4273306,-0.948742315,1.056767444
12.11025817,-0.016039753,-0.573911087,-0.802796397,0.986971764
12.12025217,0.113224534,-0.653604543,-0.841172258,1.07125602
12.13024517,0.148074816,-0.808049243,-0.977441034,1.276816629
12.14023796,0.16082964,-0.942536372,-1.158270271,1.501942411
12.15023196,0.116362332,-0.933273067,-1.425766354,1.708024738
12.16022496,0.092787053,-0.827868526,-1.83406105,2.01438717
12.17021896,0.086653982,-0.750251563,-2.464727113,2.577841357
12.18021196,0.017287074,-0.678696846,-3.294065191,3.363301017
12.19020496,-0.124510172,-0.500976281,-4.026427197,4.059383696
12.20019896,-0.256550186,-0.335796678,-4.570100724,4.589596718
12.21019196,-0.22901658,-0.20995378,-4.963034785,4.97275009
12.22018596,-0.170066815,-0.072761144,-5.114108711,5.117452961
12.23017896,-0.114383598,0.060471612,-4.956026312,4.95771492
12.24017296,-0.179788579,0.113932705,-4.584496568,4.589434974
12.25016596,-0.277442343,0.066750644,-4.191968304,4.201669688
12.26015896,-0.333098115,0.033803923,-3.786560962,3.801334105
12.27015296,-0.35797418,0.071401666,-3.29556734,3.31572131
12.28014596,-0.269011169,0.204261077,-2.788688588,2.809069888
12.29013996,-0.093181156,0.445859549,-2.166091683,2.21346485
12.30013296,-0.010262667,0.634859978,-1.716865307,1.830513315
12.31012696,0.051104592,0.78258418,-1.42455598,1.626164019
12.32011996,0.120734917,0.811185105,-0.986560351,1.282926156
12.33011296,0.109383352,0.690810815,-0.335552995,0.775744876
12.34010696,0.055369185,0.510613662,0.493351804,0.71217137
12.35009996,0.091388692,0.327011383,1.223335748,1.269582092
12.36009396,0.134259161,0.208264081,1.678772451,1.696960928
12.37008696,0.178597647,0.213339318,1.8160756,1.837264643
12.38007996,0.270156127,0.16129559,1.715025773,1.743649622
12.39007396,0.399041259,0.013780133,1.517060686,1.568724623
12.40006696,0.622264198,0.063115723,1.284331563,1.428532075
12.41006096,0.780284032,0.187473282,1.011067786,1.290832084
12.42005396,0.884907019,0.273236441,0.964863088,1.33741518
12.43004796,0.917026578,0.286848612,1.359694571,1.664929187
12.44004096,1.009319542,0.284338549,2.208257709,2.444581039
12.45003396,1.049700779,0.189854999,3.493676854,3.652902217
12.46002796,0.95208356,-0.013525487,4.37988729,4.482193516
12.47002096,0.607631395,-0.344148987,4.329439268,4.385396083
12.48001496,0.290495155,-0.651505539,3.553785061,3.624670352
12.49000796,0.236278529,-0.576870216,2.597072407,2.670841043
12.50000096,0.559216888,-0.177687236,1.869882263,1.959784671
12.50999496,1.212665456,0.263441185,1.755947512,2.150188464
12.51998796,1.727248793,0.441865608,2.278435991,2.893078667
12.52998196,2.032970463,0.289175073,3.403768896,3.975202363
12.53997496,1.800285048,-0.152115608,4.440719383,4.794179184
12.54996896,1.073850949,-0.732230005,4.788007155,4.961283015
12.55996196,0.175037351,-1.355718757,4.063606133,4.287365884
12.56995496,-0.455454538,-1.91518956,2.785150437,3.410638187
12.57994896,-0.520279475,-2.16970994,1.493409868,2.684884539
12.58994196,-0.210195416,-2.038881267,0.456193918,2.099840905
12.59993596,0.3472054,-1.646708367,0.003292567,1.682917371
12.60992896,1.01377015,-1.205397952,0.218741414,1.590145259
12.61992196,1.438733724,-0.800383835,0.58903798,1.748580783
12.62991596,1.610954982,-0.447143159,0.679186258,1.804551726
12.63990896,1.611157588,-0.232479593,0.440436841,1.686374854
12.64990296,1.487355661,-0.166379305,0.0714635,1.498337735
12.65989596,1.360385712,-0.140660474,-0.390581726,1.422318086
12.66988996,1.124321629,-0.151730568,-0.972024758,1.493972363
12.67988296,0.853156638,-0.157712124,-1.636430424,1.852202444
12.68987596,0.681702899,-0.134126502,-2.251424779,2.356188086
12.69986996,0.50354584,-0.122409413,-2.748412381,2.796839841
12.70986296,0.345992102,-0.119291824,-3.179503033,3.200496932
12.71985696,0.177682119,-0.13936897,-3.59104235,3.598135601
12.72984996,0.028388378,-0.141171666,-4.045532974,4.048094908
12.73984296,-0.080941471,-0.072525355,-4.553777636,4.555074336
12.74983696,-0.175241492,0.035103028,-5.190609003,5.193684975
12.75982996,-0.264958428,0.254349349,-5.833816173,5.845366344
12.76982396,-0.247271149,0.542096386,-6.310212221,6.338279718
12.77981696,-0.172094739,0.927457573,-6.559195434,6.626676308
12.78981096,-0.146516241,1.324256643,-6.409841759,6.546846114
12.79980396,-0.207771891,1.632837895,-5.775258062,6.005242246
12.80979696,-0.532023023,1.732332508,-4.793996458,5.12507819
12.81979096,-0.82380515,1.442343941,-3.583700001,3.94992616
12.82978396,-1.148416178,1.216954974,-2.395991338,2.922432825
12.83977796,-1.365509042,1.162556134,-1.533670871,2.359724147
12.84977096,-1.479174529,1.034337219,-0.663616877,1.923069975
12.85976496,-1.477552219,1.010959174,0.413565962,1.837453623
12.86975796,-1.299863083,1.047637589,1.435901917,2.202045156
12.87975096,-1.10808033,1.086273212,2.027920223,2.553486232
12.88974496,-1.030630669,1.170347402,2.168145225,2.670723935
12.89973796,-0.980100494,1.216155952,2.148224346,2.656030895
12.90973196,-0.995595907,1.177460979,2.253905752,2.730882038
12.91972496,-1.187433771,1.109556533,2.259835998,2.783518169
12.92971796,-1.399842431,0.998721829,2.248318738,2.830537276
12.93971196,-1.444616169,0.779992402,2.517308784,3.005353147
12.94970496,-1.306109079,0.563119612,3.076408435,3.38929395
12.95969896,-1.153912341,0.384041616,3.868069979,4.054746233
12.96969196,-1.065198531,0.340380164,4.402870356,4.542661548
12.97968596,-1.199983503,0.491254115,3.95777153,4.164762478
12.98967896,-1.484891936,0.8718602,2.577859041,3.100064758
12.99967196,-1.50380154,1.167052789,1.134970286,2.216210467
13.00966596,-1.259591847,1.459406847,0.136991492,1.932668268
13.01965896,-0.73981823,1.757925332,-0.135266563,1.912048517
13.02965296,-0.276849289,1.670644529,1.123194578,2.032059234
13.03964596,-0.027504425,1.056244836,3.172060697,3.343408248
13.04963996,-0.040913626,0.121527361,5.097899644,5.099512095
13.05963296,-0.518126895,-1.038414044,6.340747551,6.446071572
13.06962596,-1.254297632,-2.118718126,6.274053624,6.739879667
13.07961996,-1.893096586,-2.574012743,4.77215243,5.743064957
13.08961296,-2.085006589,-2.191152849,2.304791147,3.802691877
13.09960696,-1.892806272,-1.303066041,0.370538641,2.327658819
13.10959996,-1.387974045,-0.560507661,-0.626004077,1.62250482
13.11959296,-0.736298133,-0.091364791,-0.841627171,1.121970927
13.12958696,-0.158788158,-0.058044871,-0.182169419,0.248532862
13.13957954,0.322532488,-0.399312935,0.922640344,1.055814013
13.14957354,0.587369331,-0.821963277,2.175861796,2.398958297
13.15956654,0.74579328,-1.252910087,3.205813749,3.521822412
13.16956054,0.760518396,-1.784159596,3.460847661,3.967250967
13.17955354,0.640615684,-2.161913701,2.862705567,3.644083214
13.18954654,0.343661256,-2.13743214,1.631738618,2.710957419
13.19954054,0.060335847,-2.073532159,0.228489892,2.086955596
13.20953354,-0.051885889,-1.991412986,-0.829223472,2.157783444
13.21952754,-0.035153534,-1.843908346,-1.722185104,2.523322273
13.22952054,-0.004247783,-1.705155673,-2.708822054,3.200826586
13.23951454,-0.044506813,-1.553535909,-3.982379537,4.274903677
13.24950754,-0.13192678,-1.213695443,-5.452450828,5.587457502
13.25950054,-0.140092636,-0.846994038,-6.646670365,6.701884197
13.26949454,-0.040225335,-0.573305461,-7.415826561,7.438062974
13.27948754,0.064526062,-0.353316983,-7.791088582,7.799362653
13.28948154,0.269160712,0.085600606,-7.761391743,7.76652926
13.29947454,0.469757996,0.460960714,-7.353664811,7.38305787
13.30946754,0.540540881,0.543373564,-7.084049698,7.125391175
13.31946154,0.42542755,0.586789725,-6.608060616,6.647689515
13.32945454,0.289819363,0.666609774,-5.475246198,5.523285687
13.33944854,0.119918134,0.661965038,-4.200336839,4.253869724
13.34944154,-0.011056299,0.716639574,-3.503520641,3.576080453
13.35943554,-0.10491734,0.9336641,-3.195860619,3.331105131
13.36942854,-0.065234681,1.17528216,-3.105090782,3.320712647
13.37942154,0.115952004,1.38355048,-2.648122693,2.990018494
13.38941554,0.278022606,1.516504762,-1.605328499,2.225794881
13.39940854,0.447988557,1.445596016,-0.041025234,1.513976439
13.40940254,0.467167022,1.172201701,1.628092879,2.059851518
13.41939554,0.283254804,0.784023765,2.983085119,3.097373625
13.42938954,-0.028629064,0.399246423,3.824656742,3.845545023
13.43938254,-0.135666805,0.032761218,4.287701842,4.289972712
13.44937554,-0.142728341,-0.331386562,4.367174274,4.382054264
13.45936954,-0.004534516,-0.569588094,4.050912997,4.090763654
13.46936254,0.10335363,-0.645033841,3.632823045,3.691091153
13.47935654,0.306539038,-0.541548941,3.169368639,3.229882197
13.48934954,0.602950845,-0.374689433,3.021341112,3.10361789
13.49934354,0.940333214,-0.143247282,3.289522489,3.42428161
13.50933654,1.027654656,-0.116881163,3.571796824,3.718530335
13.51932954,0.855295769,-0.314491178,3.658909813,3.770683833
13.52932354,0.567953724,-0.55819304,3.769939082,3.853127507
13.53931654,0.458388195,-0.668567568,3.614758072,3.704534822
13.54931054,0.402006236,-0.566437322,2.750838976,2.837177352
13.55930354,0.356931256,-0.304588919,1.45725361,1.530935144
13.56929654,0.705424542,0.105658894,0.604171743,0.934778627
13.57929054,1.586422843,0.840069473,0.281791356,1.817102233
13.58928354,2.478163429,1.546036855,0.167630902,2.92568352
13.59927754,2.931542498,1.817354386,0.530234286,3.48968004
13.60927054,3.041370165,1.671201184,1.122076591,3.647177231
13.61926454,2.987195127,1.363594371,1.656700966,3.677959003
13.62925754,2.785794801,1.065315329,1.879498009,3.525345683
13.63925054,2.401896149,0.575558247,1.605033799,2.945590926
13.64924454,1.914579403,-0.21305105,1.081040246,2.208993674
13.65923754,1.495088311,-1.016011169,0.633147621,1.915318162
13.66923154,1.079967356,-1.565173184,0.526416639,1.973122161
13.67922454,0.668001923,-1.770123209,0.732164955,2.028701128
13.68921854,0.551916054,-1.756819624,1.022238307,2.106180828
13.69921154,0.585361982,-1.603666428,1.21097181,2.093047392
13.70920454,0.653379864,-1.364662658,1.183784596,1.921081827
13.71919854,0.733672806,-1.119176226,0.999028954,1.669997024
13.72919154,0.780933511,-0.884539448,0.810661486,1.431586263
13.73918554,0.773418523,-0.706304474,0.465193952,1.146057431
13.74917854,0.728190895,-0.58459088,-0.00437898,0.933824208
13.75917154,0.620979565,-0.432328653,-0.610611867,0.972301669
13.76916554,0.490823468,-0.283763621,-1.222020709,1.347131799
13.77915854,0.390539919,-0.11044791,-1.98140036,2.022539877
13.78915254,0.378821368,-0.009842472,-2.653069437,2.679996258
13.79914554,0.352576433,0.09317085,-3.137252222,3.158376554
13.80913954,0.269680237,0.327943136,-3.628301978,3.653060275
13.81913254,0.204345715,0.581056238,-3.986714078,4.03401446
13.82912554,0.103208326,0.725787543,-4.386024528,4.446867512
13.83911954,-0.001368248,0.921422369,-4.911813176,4.997492344
13.84911254,-0.015969696,1.212243872,-5.314057758,5.450596307
13.85910654,0.016829018,1.608218485,-5.369833764,5.605511981
13.86909954,0.050186725,1.89881414,-5.168794795,5.506764339
13.87909354,-0.00093095,2.005080999,-4.612573144,5.029530961
13.88908654,-0.222996287,2.052887834,-3.890312203,4.404384728
13.89907954,-0.534148778,1.982311356,-3.332313582,3.913973306
13.90907354,-0.810627134,1.892418163,-2.835037127,3.503683543
13.91906654,-1.195822771,1.654818017,-1.95624213,2.827595805
13.92906054,-1.714184943,1.161908116,-0.707138872,2.188265495
13.93905354,-2.250461158,0.615151206,0.722308888,2.442276921
13.94904654,-2.674647125,0.157285716,2.362122511,3.571848093
13.95904054,-2.902029262,-0.167069569,3.809877319,4.792165613
13.96903354,-3.010599192,-0.358163593,4.383369892,5.329720468
13.97902754,-3.068872544,-0.359694687,4.133361661,5.160623759
13.98902054,-3.086606856,-0.280054733,3.699667245,4.826293636
13.99901454,-3.004921254,-0.212218845,3.446379311,4.577348461
14.00900754,-2.713703602,-0.039697624,3.394446096,4.34603583
14.01900054,-2.344681729,0.226554171,3.376939532,4.117351067
14.02899454,-1.90350463,0.496151159,3.304961477,3.84607153
14.03898754,-1.61511703,0.619969166,3.293820192,3.720512901
14.04898154,-1.401474827,0.734246418,3.039996069,3.427072452
14.05897454,-1.310022182,0.806547385,2.496619581,2.932539196
14.06896854,-1.392522155,0.916815932,1.70570765,2.385185107
14.07896154,-1.362616717,1.207755111,1.045529521,2.099649662
14.08895454,-1.228563451,1.455151097,0.615232337,2.001335478
14.09894854,-1.031644211,1.577008241,0.208500016,1.895973899
14.10894154,-0.626571038,1.596193248,0.248220736,1.732638936
14.11893554,-0.2936202,1.369710705,0.970020917,1.703895776
14.12892854,-0.261177673,0.874837456,2.239773617,2.418706308
14.13892208,-0.382601593,0.151763751,3.438941068,3.463485511
14.14891508,-0.775970394,-0.598079383,4.133156424,4.247683019
14.15890808,-1.239386939,-1.275304339,4.234353016,4.592627419
14.16890208,-1.646902495,-1.837455067,3.740342816,4.480925499
14.17889508,-1.754558213,-1.943960784,2.775708354,3.816020823
14.18888908,-1.631725608,-1.56141284,1.840243312,2.913251441
14.19888208,-1.260393646,-1.011578833,1.222878495,2.02665135
14.20887608,-0.671994986,-0.638402075,0.972061595,1.343144898
14.21886908,-0.144251541,-0.510883365,1.033516417,1.161880589
14.22886208,0.283836419,-0.579498832,1.223125248,1.382901798
14.23885608,0.579396506,-0.795046789,1.373791038,1.689704568
14.24884908,0.755796477,-1.063107128,1.380606553,1.899341869
14.25884308,0.812898631,-1.234257177,1.375450478,2.018925205
14.26883608,0.719391932,-1.335765133,1.179126704,1.921492396
14.27883008,0.644690609,-1.473701389,0.728739656,1.765922776
14.28882308,0.537014864,-1.58754887,-0.021278602,1.676051658
14.29881608,0.450089279,-1.601476353,-0.986378503,1.933972446
14.30881008,0.403415342,-1.508848125,-2.025967253,2.558106705
14.31880308,0.336982055,-1.389405297,-3.111587039,3.424321522
14.32879708,0.222692816,-1.32030568,-3.998762265,4.216977452
14.33879008,0.095788941,-1.272346817,-4.720464213,4.889869562
14.34878308,0.016139996,-1.207007983,-5.364817438,5.49894489
14.35877708,-0.005708637,-1.075558482,-5.88029569,5.977853799
14.36877008,0.074661927,-0.935495448,-6.122206696,6.193717863
14.37876408,0.147748103,-0.837865072,-6.161099451,6.219565405
14.38875708,0.203305934,-0.703949801,-6.138355536,6.181932329
14.39875108,0.29560321,-0.552488935,-6.041413379,6.073820947
14.40874408,0.393501972,-0.382394601,-5.593731837,5.620578734
14.41873708,0.446661714,-0.270844491,-4.833690866,4.8618341
14.42873108,0.434566017,-0.199427476,-4.270366017,4.297050717
14.43872408,0.440301149,-0.121626763,-3.912245108,3.938822154
14.44871808,0.449393095,-0.087410465,-3.537294159,3.566797543
14.45871108,0.439088327,-0.115604277,-2.88026534,2.915834587
14.46870508,0.394995497,-0.159292919,-2.117297838,2.159709659
14.47869808,0.374415637,-0.240375089,-1.467733575,1.533691331
14.48869108,0.36977916,-0.334655448,-0.846957493,0.982887527
14.49868508,0.356498014,-0.444763196,-0.235939829,0.616905777
14.50867808,0.335882047,-0.553056261,0.532985401,0.838308664
14.51867208,0.429622562,-0.74637252,1.300917774,1.560139269
14.52866508,0.598397545,-0.831535608,1.737876692,2.017361268
14.53865908,0.763705421,-0.734018961,2.059572955,2.316003144
14.54865208,0.886796985,-0.587440082,2.308774855,2.542033845
14.55864508,0.952557257,-0.472503995,2.459008536,2.679057359
14.56863908,0.960997128,-0.31651183,2.661160814,2.847011081
14.57863208,0.964599671,-0.076979325,2.894576401,3.052040445
14.58862608,0.980243166,0.120352655,3.13803341,3.289774325
14.59861908,0.979006406,0.265992617,3.345071037,3.49552655
14.60861308,0.907485677,0.370849712,3.356488895,3.496723819
14.61860608,0.889953093,0.52177585,3.404215039,3.557098056
14.62859908,1.032853488,0.807387338,3.458651447,3.698774186
14.63859308,1.239331245,1.178743712,3.288792171,3.706957326
14.64858608,1.481919797,1.314430251,3.362731968,3.902791239
14.65858008,1.599531131,1.032635387,4.327267027,4.727586657
14.66857308,1.413256674,0.423304719,5.808727525,5.993145816
14.67856708,0.917477326,-0.408969758,7.054011381,7.125173505
14.68856008,0.41624881,-1.293419305,7.792309481,7.909885184
14.69855308,0.070187638,-2.015398703,7.793430392,8.050112764
14.70854708,0.091771026,-2.316026279,6.845813082,7.227555354
14.71854008,0.391322203,-2.236451229,5.426618999,5.882434948
14.72853408,0.957829107,-2.018116196,4.253269928,4.804220505
14.73852708,1.737207186,-1.691304204,3.26770068,4.068939229
14.74852008,2.517001513,-1.048206815,2.386724086,3.623601248
14.75851408,3.219213521,-0.222692085,1.711689352,3.652780844
14.76850708,3.682596591,0.367597637,1.227187309,3.899055573
14.77850108,3.728800412,0.548616178,0.619702533,3.819550163
14.78849408,3.47797211,0.411596035,-0.128671489,3.504605205
14.79848808,3.047693344,0.142591078,-0.943394451,3.193549753
14.80848108,2.600659089,-0.121195531,-1.638131964,3.075970153
14.81847408,2.214165736,-0.305010357,-2.268115071,3.184322094
14.82846808,1.852977962,-0.447017152,-2.866877555,3.442722553
14.83846108,1.462757009,-0.675855391,-3.398132765,3.760817048
14.84845508,1.048905923,-0.946554871,-3.832604862,4.084731299
14.85844808,0.666929763,-1.197556836,-4.31077554,4.523463655
14.86844208,0.395888075,-1.38171577,-4.746686051,4.959525613
14.87843508,0.125854739,-1.517111264,-5.154703006,5.374795724
14.88842808,-0.066632604,-1.565004346,-5.651872457,5.864924618
14.89842208,-0.190116589,-1.42477452,-6.31915086,6.480570526
14.90841508,-0.191404658,-1.030440781,-7.148758494,7.225177642
14.91840908,-0.133890348,-0.55442948,-7.691920974,7.713038762
14.92840208,-0.182824015,-0.144014583,-7.971986817,7.97538329
14.93839608,-0.273934525,0.242380976,-8.208963942,8.217108838
14.94838908,-0.411895705,0.509637469,-8.111162243,8.137588178
14.95838308,-0.492324814,0.670057731,-7.660808524,7.705799656
14.96837608,-0.640714722,0.871693408,-7.116469585,7.198229234
14.97836908,-0.894676108,0.936046694,-6.717209421,6.840872105
14.98836308,-1.010199036,0.908678216,-6.454560095,6.59602488
14.99835608,-1.100547143,0.824302456,-5.855026363,6.014317273
15.00835008,-1.208969504,0.684056111,-4.25122925,4.472414355
15.01834308,-1.643409076,0.291767144,-1.835915202,2.481230761
15.02833708,-2.131622347,-0.248990084,0.56665133,2.219662952
15.03833008,-2.584881839,-0.653502802,2.407648932,3.592416097
15.04832308,-2.884701915,-0.710257338,3.377055307,4.497829829
15.05831708,-2.900713346,-0.514081061,3.684743396,4.717600147
15.06831008,-2.836957353,-0.285480218,3.682673482,4.657457455
15.07830408,-2.646906179,0.018651448,3.52111082,4.405074529
15.08829708,-2.326909702,0.509380776,3.347526283,4.108516734
15.09829108,-2.082735677,1.013315748,3.329060776,4.055519986
15.10828408,-1.97724679,1.230093375,3.333397656,4.066223618
15.11827708,-1.909879557,1.293214653,3.361746712,4.076933285
15.12827108,-1.921041745,1.317336756,3.625817496,4.309562626
15.13826483,-2.071421022,1.226953566,3.902710054,4.585558403
15.14825883,-2.120747695,1.10790484,3.992287059,4.65439361
15.15825183,-1.970661948,1.15039261,4.129914728,4.718379736
15.16824583,-1.698613954,1.278120358,4.367809281,4.857637176
15.17823883,-1.410593121,1.414152175,4.716007465,5.121555012
15.18823183,-1.032862771,1.456298175,5.172282075,5.471755819
15.19822583,-0.75449993,1.201538424,5.747169793,5.919706526
15.20821883,-0.716972866,0.777681874,6.367532476,6.454789619
15.21821283,-0.911268387,0.212255098,6.710317892,6.775236418
15.22820583,-1.347230207,-0.422196379,6.353504421,6.508478889
15.23819983,-1.812700295,-0.815477838,5.341139722,5.699005176
15.24819283,-2.11477491,-0.821579115,4.133381542,4.715093651
15.25818583,-2.129398797,-0.685154584,2.941771617,3.695645584
15.26817983,-1.998990539,-0.591232878,2.158022525,3.000430088
15.27817283,-1.85107294,-0.491967914,2.21374649,2.927315661
15.28816683,-1.57269782,-0.424721134,2.744642681,3.191681363
15.29815983,-1.382520931,-0.618515036,3.521097372,3.83302122
15.30815383,-1.275723876,-1.118548527,4.15422745,4.487340852
15.31814683,-1.156128363,-1.539508147,4.536421346,4.928066229
15.32814083,-0.938058501,-1.838890558,4.676921167,5.112246458
15.33813383,-0.794781472,-1.994434096,4.355931832,4.856293554
15.34812683,-0.640854251,-1.949962805,3.782514104,4.303540642
15.35812083,-0.467061955,-1.904303067,2.823273699,3.437352385
15.36811383,-0.365943314,-1.916130961,1.709301934,2.593681837
15.37810783,-0.05060809,-1.917135074,0.598388262,2.008988946
15.38810083,0.245226816,-1.859128649,-0.516633078,1.945097751
15.39809483,0.463126596,-1.722646303,-1.986285709,2.669705498
15.40808783,0.667135804,-1.532077651,-3.709454899,4.068462579
15.41808083,0.737536354,-1.360459387,-5.368261448,5.586863215
15.42807483,0.602401937,-1.303995018,-6.986031067,7.132175066
15.43806783,0.50729237,-1.251783621,-8.160830247,8.271847322
15.44806183,0.375519518,-1.386598195,-8.845019383,8.960917216
15.45805483,0.195536373,-1.514457944,-9.209114392,9.334859679
15.46804883,0.089858475,-1.664506707,-9.523709212,9.668489762
15.47804183,0.032171161,-1.644180616,-9.732430837,9.870388791
15.48803583,0.157015903,-1.420375075,-9.574403987,9.680461304
15.49802883,0.371622714,-1.126103714,-9.062445758,9.139701097
15.50802183,0.533998651,-0.937561854,-8.397117401,8.466153639
15.51801583,0.512273832,-0.863691055,-7.847970881,7.91195511
15.52800883,0.446372861,-0.864872192,-7.450747887,7.514046627
15.53800283,0.436094187,-0.921453067,-6.944325217,7.018753922
15.54799583,0.433310401,-0.916818564,-6.435983491,6.515381622
15.55798983,0.4419664,-0.770284416,-6.019861127,6.085014409
15.56798283,0.45290157,-0.479113542,-5.328074119,5.368709662
15.57797583,0.453332729,-0.338373984,-4.111141657,4.149878702
15.58796983,0.403595801,-0.314293689,-2.217453625,2.275691252
15.59796283,0.213131376,-0.505759011,-0.147348665,0.568268237
15.60795683,0.055765225,-0.898258039,1.586434391,1.823938415
15.61794983,0.141717431,-1.059091553,2.849337078,3.043103766
15.62794383,0.646330241,-0.719879517,3.504065017,3.635167251
15.63793683,1.251210887,-0.064339984,3.641016163,3.850541133
15.64793083,1.697699596,0.608858433,3.691410391,4.108455085
15.65792383,1.933016405,1.127116306,4.154878246,4.719105511
15.66791683,1.994883308,1.371675662,4.72194005,5.306389674
15.67791083,1.669192081,1.251974241,5.080957922,5.492701986
15.68790383,1.293955641,0.841681989,5.307641024,5.527549458
15.69789783,0.942541635,0.397219339,5.76894307,5.858913899
15.70789083,0.709449326,0.06730423,6.422554775,6.461970137
15.71788483,0.677225248,-0.189643988,6.722557284,6.759243694
15.72787783,0.689218983,-0.353465648,7.211697339,7.253174428
15.73787083,0.731530752,-0.534527093,8.406981069,8.455660066
15.74786483,0.629941154,-0.838175706,9.580987952,9.638189379
15.75785783,0.251243381,-1.11273464,9.988999643,10.05392538
15.76785183,-0.186258158,-1.41838629,9.29065089,9.400143921
15.77784483,-0.499853981,-1.692681223,7.76675364,7.964765272
15.78783883,-0.490941728,-1.781627606,5.721739667,6.012780183
15.79783183,-0.16056805,-1.500913892,3.764038072,4.055429351
15.80782583,0.423737047,-1.11248628,2.128435614,2.438732657
15.81781883,1.152456165,-0.645808889,1.020628569,1.669403189
15.82781183,1.930320546,-0.059037582,0.668225652,2.043562665
15.83780583,2.486051031,0.44648944,0.779651948,2.643418187
15.84779883,2.648752438,0.57247808,1.201671229,2.964394436
15.85779283,2.479629911,0.374318281,1.642903876,2.997967948
15.86778583,2.176770599,0.024936474,1.836191191,2.847902765
15.87777983,1.932324387,-0.270103649,1.749423773,2.620556631
15.88777283,1.767449131,-0.38777097,1.57174794,2.396796683
15.89776683,1.488335947,-0.442212641,1.169189361,1.943630539
15.90775983,1.171797439,-0.493571659,0.409531383,1.335828647
15.91775283,0.848296944,-0.619024402,-0.399355474,1.123514001
15.92774683,0.52871898,-0.745238452,-1.135305916,1.457341289
15.93773983,0.234612073,-0.888327713,-2.018207413,2.21750538
15.94773383,0.106002967,-0.927432137,-2.784784402,2.937071869
15.95772683,0.112468927,-0.875845077,-3.277680708,3.394546314
15.96772083,0.17762891,-0.712839615,-3.907991844,3.976442203
15.97771383,0.292403394,-0.488732796,-4.726599112,4.760787608
15.98770783,0.265690389,-0.287333931,-5.680112754,5.693578231
15.99770083,0.06058439,-0.17543138,-6.471952053,6.474612731
16.00769383,-0.283108806,-0.297344657,-7.006638409,7.018657011
16.01768783,-0.467159494,-0.419870137,-7.278807002,7.305857944
16.02768083,-0.713984354,-0.317724104,-7.309895478,7.35155046
16.03767483,-0.865532416,0.055767088,-7.002074073,7.055586273
16.04766783,-0.693548481,0.204282419,-6.471210042,6.511474503
16.05766183,-0.487413957,0.172903921,-6.135710256,6.1574677
16.06765483,-0.366162877,0.409361814,-5.959534818,5.984789687
16.07764783,-0.173781003,0.886943531,-5.890620119,5.959553175
16.08764183,-0.049115954,1.166568347,-5.724194913,5.842063119
16.09763483,-0.001868185,1.142463054,-5.399386761,5.518931302
16.10762883,-0.225384436,0.972154712,-5.20512647,5.299926839
16.11762183,-0.681645743,0.688001812,-5.185814871,5.275477541
16.12761583,-1.042928753,0.444024547,-5.208455874,5.33037248
16.13760883,-1.144271379,0.329371026,-4.512733691,4.667184122
16.14760229,-1.25581133,-0.004755833,-2.632348074,2.916563234
16.15759529,-1.434008881,-0.430116506,-0.740174471,1.670101772
16.16758829,-1.653172464,-0.644282181,0.169438861,1.782354693
16.17758229,-1.620300002,-0.552028467,0.24183967,1.728755029
16.18757529,-1.561438129,-0.450962999,0.246241454,1.643803976
16.19756929,-1.278326472,-0.264103674,0.539486336,1.412414538
16.20756229,-0.853409603,0.049168213,1.254240621,1.517842218
16.21755629,-0.506332477,0.123861423,2.335582584,2.393044136
16.22754929,-0.299416179,0.042386612,3.16122873,3.175659578
16.23754329,-0.234196043,-0.052137283,3.513948566,3.522130123
16.24753629,-0.275230049,-0.091441097,3.665336487,3.676792708
16.25752929,-0.126816277,-0.162065668,4.257213875,4.262184607
16.26752329,0.33891551,-0.346060734,5.650239914,5.670964013
16.27751629,0.761570383,-0.558024348,7.549477538,7.608284414
16.28751029,0.702865361,-0.907664967,9.372703114,9.442745314
16.29750329,0.227144265,-1.384876482,10.68102229,10.77282296
16.30749729,-0.497264505,-1.843259744,10.72044422,10.88911396
16.31749029,-1.314397361,-1.980675013,9.263081269,9.563231071
16.32748429,-2.022967339,-1.713444978,6.603422019,7.115720126
16.33747729,-2.465570574,-1.307034547,3.811862449,4.724158432
16.34747029,-2.626222531,-0.819949642,1.576591188,3.17096231
16.35746429,-2.56204817,-0.385054938,0.304534686,2.608658564
16.36745729,-2.498964022,-0.190170091,0.263034073,2.519954914
16.37745129,-2.500486929,-0.539774019,1.480692759,2.955713437
16.38744429,-2.379117736,-1.207011272,2.875002846,3.922080924
16.39743829,-2.329472975,-1.719279769,3.738572863,4.728561548
16.40743129,-2.158855461,-2.104100087,4.635413538,5.529462247
16.41742529,-1.750820965,-2.282108628,4.987912933,5.757835467
16.42741829,-1.284611644,-2.152946411,4.545051252,5.190654699
16.43741129,-0.865822365,-1.710156212,3.517149332,4.005573874
16.44740529,-0.524378482,-1.226575982,2.237420112,2.604901187
16.45739829,-0.335360183,-0.916629552,0.873295106,1.309702459
16.46739229,-0.330069147,-0.901863944,-0.393522876,1.037865343
16.47738529,-0.459224384,-1.020001893,-1.543201833,1.905980796
16.48737929,-0.605102072,-1.0889622,-2.51918574,2.810388583
16.49737229,-0.673885172,-1.098982062,-3.389456082,3.626333593
16.50736629,-0.693855899,-1.021948358,-4.372549619,4.543677434
16.51735929,-0.698369876,-0.963137429,-5.315511961,5.447019515
16.52735229,-0.649268906,-0.875673315,-6.084055953,6.180945778
16.53734629,-0.43393503,-0.69533232,-6.688999529,6.73902822
16.54733929,-0.179773595,-0.278473938,-6.874294869,6.882281325
16.55733329,0.114603161,0.224273903,-6.637919422,6.642695757
16.56732629,0.434850009,0.575723285,-6.204153085,6.245964083
16.57732029,0.518953765,0.769022002,-6.130017407,6.199824293
16.58731329,0.423944587,0.902356499,-6.438194323,6.514930729
16.59730729,0.311892895,0.872694451,-6.50094021,6.566665546
16.60730029,0.22368878,0.810038612,-5.996265857,6.054866097
16.61729329,0.004704012,0.635610468,-4.987831657,5.028169392
16.62728729,-0.127249866,0.468896409,-3.865860316,3.896271597
16.63728029,0.25643527,0.704029177,-2.59639413,2.70234687
16.64727429,1.171019686,1.446414042,-0.839851372,2.041751946
16.65726729,2.148591844,2.279279745,0.82020999,3.237948037
16.66726129,2.588357132,2.800071362,1.980974098,4.297004847
16.67725429,2.471049707,2.793095049,2.661329214,4.581499732
16.68724729,2.013805337,2.166324402,3.214293966,4.368072693
16.69724129,1.356906034,1.237125821,3.555764928,4.001891866
16.70723429,0.745476946,0.480251117,3.481088383,3.592262984
16.71722829,0.432777683,0.144044403,2.957029341,2.992000642
16.72722129,0.482980927,0.161554037,1.865457675,1.933727649
16.73721529,0.635848157,0.389360974,0.75006796,1.057594814
16.74720829,0.949942017,0.59580467,-0.215011475,1.141754341
16.75720229,1.087568517,0.808786577,-0.943165825,1.651212518
16.76719529,0.819037842,0.759662218,-1.251455593,1.67751327
16.77718829,0.391272392,0.382326043,-1.408501865,1.511007872
16.78718229,0.056335072,-0.065053052,-1.712852363,1.715012757
16.79717529,-0.226457948,-0.471545052,-2.02614033,2.092577974
16.80716929,-0.338149086,-0.60199424,-1.885741666,2.008174171
16.81716229,-0.254136438,-0.643973887,-1.051439302,1.258893284
16.82715629,0.228120202,-0.555779821,-0.014954839,0.600960634
16.83714929,0.992159645,-0.121050228,0.800966803,1.280851958
16.84714329,1.722340055,0.142780674,1.961998714,2.614628184
16.85713629,2.254738103,0.014325825,3.381596255,4.064387085
16.86712929,2.526152113,-0.416733983,4.209337458,4.92682794
16.87712329,2.413262844,-0.865362847,4.743898684,5.392333923
16.88711629,1.986779214,-1.278511244,5.221188771,5.730854633
16.89711029,1.437011865,-1.748600193,5.222741792,5.692067951
16.90710329,0.753472209,-2.269167424,4.625898364,5.207281137
16.91709729,0.198884489,-2.657105478,3.296244448,4.238512949
16.92709029,0.321947401,-2.369624927,1.814437795,3.001825601
16.93708429,0.923676178,-1.520938998,0.700421591,1.912334574
16.94707729,1.767935766,-0.464704029,-0.003282042,1.827992746
16.95707029,2.610659874,0.363077301,-0.094295708,2.637472613
16.96706429,2.991005173,0.692433417,0.597031124,3.127622443
16.97705729,2.784938768,0.336366416,1.612018883,3.235371878
16.98705129,2.242104317,-0.147940641,2.716876009,3.525667802
16.99704429,1.8564898,-0.424014826,3.698683743,4.160120717
17.00703829,1.665573239,-0.613018946,4.039613838,4.412301712
17.01703129,1.437399974,-0.65069643,3.652446885,3.978679778
17.02702429,0.995846095,-0.583168801,2.993150516,3.207919155
17.03701829,0.52701269,-0.491158367,2.044604668,2.167806994
17.04701129,0.090839273,-0.40675549,1.005040476,1.088029486
17.05700529,-0.388753923,-0.501825735,-0.041725146,0.636160097
17.06699829,-0.790903306,-0.630213634,-1.040464078,1.450952364
17.07699229,-0.981924898,-0.595102968,-1.881222353,2.203933209
17.08698529,-1.007221634,-0.432422099,-2.663425441,2.880159609
17.09697929,-1.009981666,-0.227580284,-3.285096146,3.444374028
17.10697229,-0.896488453,-0.050220054,-3.765672369,3.871240368
17.11696529,-0.6187987,0.236889965,-4.038920943,4.092909853
17.12695929,-0.359602739,0.546240783,-4.063085731,4.115380757
17.13695229,-0.093948731,0.822939031,-4.222575554,4.303045355
17.14694779,0.199471659,1.215786408,-4.385248017,4.555033008
17.15694079,0.482957647,1.583048269,-4.367216958,4.670318391
17.16693479,0.709748046,1.758674361,-4.148379065,4.561329485
17.17692779,0.772351626,1.663289317,-4.107381898,4.498182348
17.18692179,0.557839832,1.319297912,-4.217377964,4.453988005
17.19691479,0.139515589,0.824362097,-4.458563331,4.5362787
17.20690779,-0.234456647,0.474383802,-4.871706539,4.900360651
17.21690179,-0.304784325,0.395728446,-5.212714986,5.236591641
17.22689479,-0.240252991,0.591105994,-5.17874968,5.217909164
17.23688879,-0.224832824,0.884000335,-4.739822005,4.826791795
17.24688179,-0.31148856,1.107805438,-4.052506948,4.212727213
17.25687579,-0.467586158,1.195337525,-3.331163435,3.569890537
17.26686879,-0.668896255,1.320556818,-2.600075537,2.991936715
17.27686279,-0.921674676,1.648055566,-1.863185447,2.65274035
17.28685579,-0.947043333,2.06093448,-1.070337503,2.507980138
17.29684879,-0.802373277,2.471464275,-0.355596666,2.622668017
17.30684279,-0.72840695,2.71188541,-0.0506211,2.808462508
17.31683579,-0.861372926,2.756312847,-0.432490475,2.919978054
17.32682979,-0.86596796,2.561090981,-1.463203152,3.074093522
17.33682279,-0.783915737,2.283358031,-2.333434902,3.357553607
17.34681679,-0.826163917,1.938780736,-1.348635147,2.502046027
17.35680979,-0.870054433,1.426064123,0.88847097,1.892097847
17.36680279,-0.918616582,1.074387431,2.869201823,3.198512761
17.37679679,-1.272247268,0.884545807,3.930637525,4.225037959
17.38678979,-1.677931914,0.704553818,4.222777283,4.598227873
17.39678379,-1.876453072,0.753561525,4.370768557,4.815864292
17.40677679,-1.779528455,1.269917445,4.216534211,4.749586571
17.41677079,-1.54685722,2.041203343,3.353434895,4.219573905
17.42676379,-1.168398087,2.727961452,2.132572519,3.654421066
17.43675779,-0.938638911,3.029881555,1.192387605,3.388659535
17.44675079,-0.80668918,2.875537282,1.345401052,3.275601637
17.45674379,-0.74636331,2.074214383,2.542103317,3.364775293
17.46673779,-0.851724728,0.821292602,4.078620028,4.246774998
17.47673079,-0.957266532,-0.309020706,5.414686001,5.507329434
17.48672479,-0.945578094,-1.31768525,6.254363126,6.461228247
17.49671779,-0.995399953,-2.444982235,6.463607492,6.981903824
17.50671179,-1.209350012,-3.410677674,6.642491945,7.564254682
17.51670479,-1.519582298,-3.983793101,6.995799426,8.192737481
17.52669879,-1.985718821,-4.416656629,6.921181937,8.44705241
17.53669179,-2.458021233,-4.770127831,6.286906974,8.265663144
17.54668479,-2.627258365,-4.772290716,5.032580983,7.41647602
17.55667879,-2.368514541,-4.402243534,3.603579365,6.16241783
17.56667179,-1.755948535,-3.706247701,2.465178518,4.78505302
17.57666579,-1.091410503,-3.005420313,1.818907991,3.678607675
17.58665879,-0.600394442,-2.556480744,1.433815046,2.991971401
17.59665279,-0.231553723,-2.229899424,1.10870167,2.501057368
17.60664579,0.072613136,-1.859990236,0.964047402,2.096240382
17.61663879,0.255415297,-1.603741565,1.06607079,1.942609304
17.62663279,0.394268981,-1.473076322,1.26274949,1.979883368
17.63662579,0.446368366,-1.361844154,1.222839319,1.883932116
17.64661979,0.406988648,-1.162970701,0.822118521,1.481222291
17.65661279,0.397680721,-0.863098878,0.255977068,0.984181837
17.66660679,0.279097507,-0.560413922,-0.551448569,0.834298932
17.67659979,0.099602641,-0.24758445,-1.759419004,1.779543193
17.68659279,-0.129255973,-0.046885168,-3.00139626,3.004544031
17.69658679,-0.349979246,-0.014662624,-3.910055326,3.925714345
17.70657979,-0.527131607,0.069559354,-4.423259597,4.45510176
17.71657379,-0.548879522,0.309943433,-4.841082916,4.881948122
17.72656679,-0.590685104,0.444426543,-5.269417191,5.32101319
17.73656079,-0.773205173,0.400356078,-5.602248307,5.669507679
17.74655379,-0.947316617,0.360358053,-5.746655822,5.835350876
17.75654779,-1.08514046,0.384587161,-5.924577239,6.035399951
17.76654079,-1.154332463,0.435796345,-6.253012419,6.373583466
17.77653379,-1.154756533,0.348702945,-6.494655038,6.605724824
17.78652779,-1.007492214,0.242861179,-6.291935579,6.37671353
17.79652079,-0.833168881,0.270344627,-5.709400873,5.776202466
17.80651479,-0.637277144,0.378616277,-5.175281112,5.22809784
17.81650779,-0.537992006,0.354677118,-4.791666927,4.834801258
17.82650179,-0.498494065,0.247724746,-4.574418308,4.608163054
17.83649479,-0.349507595,0.297689716,-4.761885304,4.783965549
17.84648779,-0.132665137,0.292066814,-5.084977298,5.095085591
17.85648179,0.096026849,0.273546782,-4.74748712,4.756330829
17.86647479,0.23862361,0.417911393,-3.299903051,3.334809036
17.87646879,0.364434732,0.568107945,-1.201292914,1.377920163
17.88646179,0.608237386,0.526581531,0.84295332,1.165251528
17.89645579,1.069090803,0.560047265,2.738265123,2.992441139
17.90644879,1.462218627,0.6504211,4.01026023,4.317790874
17.91644179,1.703424166,0.634951487,4.362543864,4.726161893
17.92643579,1.652980968,0.524628414,4.02363749,4.381465475
17.93642879,1.526169186,0.362323887,3.310440903,3.663262201
17.94642279,1.447861081,0.320865155,2.858196779,3.220022513
17.95641579,1.619715573,0.372324673,2.686312028,3.158856836
17.96640979,1.921354864,0.378897089,2.571784953,3.232529252
17.97640279,2.130876827,0.409029326,2.518991028,3.324643867
17.98639679,2.245261521,0.337253073,2.655156893,3.493536469
17.99638979,2.242844867,0.13710522,2.853466381,3.631999632
18.00638279,2.116372516,-0.028786354,3.097043844,3.751205386
18.01637679,1.962534465,-0.091014251,3.151406577,3.713648951
18.02636979,1.931153043,-0.208380513,2.832146848,3.434214653
18.03636379,2.073250616,-0.218688058,2.49390238,3.250498679
18.04635679,2.322121563,-0.062854498,2.485699906,3.40219095
18.05635079,2.573133321,0.278402602,2.807183331,3.818219657
18.06634379,2.651495367,0.548688537,3.094856985,4.112131631
18.07633679,2.632488992,0.647359571,3.028629082,4.064685329
18.08633079,2.393638419,0.535750988,3.069215775,3.928946357
18.09632379,2.04113113,0.090995832,3.549718907,4.095729587
18.10631779,1.800433275,-0.441438871,3.995221192,4.404341111
18.11631079,1.550814908,-0.907145661,4.249897839,4.614062393
18.12630479,1.328811771,-1.210489634,4.288680666,4.650140614
18.13629779,1.321166682,-1.31794165,3.64771181,4.097347074
18.14628979,1.46542831,-1.295862564,2.477741261,3.156887972
18.15628379,1.63828823,-1.192581294,1.151451248,2.33068197
18.16627679,1.918383601,-1.028634722,0.110024133,2.179539021
18.17627079,2.216466908,-0.755253052,-0.460956475,2.386548469
18.18626379,2.471112272,-0.37735167,-0.603479433,2.571571032
18.19625779,2.56591318,-0.25205132,-0.484801421,2.623446727
18.20625079,2.303908802,-0.515750514,-0.266056498,2.375874664
18.21624379,1.783983011,-0.800001428,-0.173510277,1.962830477
18.22623779,1.269740128,-1.077775454,-0.276022493,1.688202695
18.23623079,0.84476698,-1.246867867,-0.445353765,1.57055745
18.24622479,0.522613025,-1.213079439,-0.73199714,1.510134402
18.25621779,0.408555848,-0.970055854,-1.165824873,1.570692165
18.26621179,0.377135469,-0.703247842,-1.584408916,1.774018123
18.27620479,0.287670585,-0.521980576,-2.052057529,2.136857082
18.28619879,0.14687928,-0.471621358,-2.691165217,2.736123252
18.29619179,-0.070325705,-0.489854365,-3.305892938,3.342728096
18.30618479,-0.300926223,-0.51998324,-3.724339571,3.772485176
18.31617879,-0.494862798,-0.437119277,-4.055963822,4.109355786
18.32617179,-0.607631029,-0.270230679,-4.519008338,4.567677358
18.33616579,-0.61163597,-0.031441429,-5.021437359,5.058648068
18.34615879,-0.573177992,0.264243569,-5.412841789,5.449515016
18.35615279,-0.518939147,0.515449163,-5.669761428,5.716745607
18.36614579,-0.540975731,0.693427371,-5.682320078,5.749978933
18.37613879,-0.666630239,0.766022673,-5.632673124,5.723477364
18.38613279,-0.796216525,0.756715879,-5.760607279,5.864399023
18.39612579,-0.937306988,0.701604775,-5.940804432,6.055076461
18.40611979,-1.090248003,0.746517896,-6.089009714,6.230727805
18.41611279,-1.080423,0.885086455,-6.317016626,6.469574248
18.42610579,-0.984469825,0.932848267,-6.451206717,6.592226849
18.43609979,-0.856806616,0.867818166,-6.120916216,6.241221136
18.44609279,-0.665918048,0.700703792,-5.088656951,5.179658503
18.45608679,-0.454121738,0.476807473,-3.719600403,3.777432868
18.46607979,-0.42631757,0.22573483,-2.633408759,2.677227031
18.47607379,-0.592360295,0.212844022,-1.342991999,1.48317929
18.48606679,-1.22105029,0.190864302,0.559204901,1.356504005
18.49605979,-1.788889117,-0.032554519,2.821727695,3.341157173
18.50605379,-1.942242141,-0.367435889,4.762202223,5.156150083
18.51604679,-1.673125941,-0.493992586,5.739616359,5.998881149
18.52604079,-1.28063086,-0.227250922,5.814758343,5.958445516
18.53603379,-0.933078939,0.302242577,5.370454153,5.459282434
18.54602779,-0.56137155,0.907362008,4.904809965,5.019522351
18.55602079,-0.111062361,1.442197614,4.849864849,5.060974004
18.56601379,0.184418404,1.796745582,5.165991055,5.472638159
18.57600779,0.207397231,1.961518365,5.247456218,5.605922285
18.58600079,0.093959073,1.97228572,5.062821613,5.434234256
18.59599479,-0.041911677,1.870839745,4.857439917,5.205431825
18.60598779,-0.101544885,1.769725598,4.745157005,5.065447172
18.61598179,-0.072632295,1.752634479,4.826029844,5.134935942
18.62597479,0.061381119,1.644667689,4.872936208,5.143365313
18.63596779,0.368723665,1.259998082,4.77916558,4.956205802
18.64596179,0.753848916,0.712965038,4.961397564,5.068734864
18.65595479,0.928087098,0.206458533,5.645333515,5.724837228
18.66594879,0.817721634,-0.363564301,6.454494606,6.51623728
18.67594179,0.367500025,-0.972405119,6.541074913,6.623163066
18.68593579,-0.213740217,-1.512452934,5.512820991,5.72052393
18.69592879,-0.668821703,-1.748414398,3.668747753,4.118735904
18.70592179,-0.961550348,-1.775427072,1.745121977,2.668739604
18.71591579,-1.085800319,-1.590939378,-0.131947099,1.930663221
18.72590879,-1.04021791,-1.126173588,-1.609251981,2.222613819
18.73590279,-0.87964701,-0.568412804,-2.430763561,2.646787386
18.74589579,-0.622133513,-0.17998351,-2.803810657,2.877637637
18.75588879,-0.334430037,-0.081076396,-2.664107811,2.686240358
18.76588279,-0.123845343,-0.205350413,-2.130299706,2.143754487
18.77587579,-0.058147855,-0.414724514,-1.38065567,1.442770832
18.78586979,-0.027281354,-0.686091892,-0.624691962,0.928281425
18.79586279,0.031807026,-0.966145748,-0.035531775,0.967321973
18.80585679,0.012265266,-1.15928849,0.440059696,1.240061602
18.81584979,0.069982145,-1.287333231,0.695746742,1.46498733
18.82584279,0.105162027,-1.351885468,0.563678021,1.468463919
18.83583679,0.155733828,-1.328267249,0.01613773,1.337463022
18.84582979,0.123169295,-1.295918697,-0.771107411,1.51300449
18.85582379,0.182863374,-1.174895951,-1.457685134,1.881134089
18.86581679,0.25392263,-1.058484247,-2.230223944,2.481685807
18.87581079,0.253635112,-0.877923689,-3.07865552,3.211417224
18.88580379,0.313845499,-0.649370282,-3.817279894,3.884817441
18.89579679,0.406906385,-0.465846428,-4.526336653,4.568403353
18.90579079,0.528968254,-0.336250714,-5.253091764,5.290353962
18.91578379,0.662980553,-0.156459212,-5.686996096,5.727647624
18.92577779,0.770140282,0.068639076,-5.78672913,5.838155651
18.93577079,0.869635188,0.281551254,-5.642130411,5.715695237
18.94576379,0.842865757,0.508148914,-5.334699599,5.42472652
18.95575779,0.655618763,0.62745309,-4.956103495,5.038501285
18.96575079,0.564975737,0.645837467,-4.399292445,4.482195626
18.97574479,0.532554754,0.590957694,-3.984196267,4.06283958
18.98573779,0.484660795,0.554277452,-3.577042946,3.652034477
18.99573179,0.462999127,0.579210491,-2.83083064,2.926338172
19.00572479,0.573136294,0.639023488,-1.908550485,2.092701886
19.01571779,0.818695707,0.622665683,-1.064077474,1.479944622
19.02571179,0.929746246,0.489437312,-0.319616994,1.098240405
19.03570479,0.878865383,0.319015534,0.515734361,1.06778144
19.04569879,0.797855792,0.199673059,1.422084362,1.642792478
19.05569179,0.783013512,0.117146773,1.973236477,2.126145743
19.06568479,0.978322355,0.163692364,2.237810122,2.447795735
19.07567879,1.244684517,0.254385821,2.069955856,2.42871755
19.08567179,1.50636452,0.370063408,1.665082365,2.275649419
19.09566579,1.673049489,0.511528678,1.565917096,2.34794645
19.10565879,1.843269684,0.630856024,1.983949161,2.780589277
19.11565279,1.920374724,0.655482084,2.322932718,3.0843982
19.12564579,1.709168763,0.552674877,2.183574273,2.827490758
19.13563879,1.366133232,0.348456485,1.771060225,2.263712935
19.14563292,1.072897414,0.238046289,1.4561403,1.824313424
19.15562592,0.92038902,0.230266934,1.130838643,1.476121555
19.16561992,0.917373464,0.282577148,0.573479708,1.118169439
19.17561292,1.068859692,0.37282439,0.016801974,1.132140174
19.18560592,1.321802275,0.537756583,0.280278681,1.454269416
19.19559992,1.598194457,0.570395375,1.167746269,2.059904793
19.20559292,1.74591252,0.439968772,2.387769569,2.990522791
19.21558692,1.658303542,-0.091969686,4.030744781,4.359510586
19.22557992,1.569831515,-0.900035154,5.906119918,6.177109903
19.23557392,1.424967916,-1.631835243,7.047857187,7.373310705
19.24556692,1.011441789,-2.215769773,6.748948107,7.175022699
19.25555992,0.64896814,-2.533754663,5.302670306,5.912646168
19.26555392,0.639171714,-2.58963738,3.380550773,4.306145117
19.27554692,0.937227831,-2.326283172,1.379580367,2.862382119
19.28554092,1.435130377,-1.806903073,-0.292887617,2.32600109
19.29553392,1.891148002,-1.182361603,-1.614535525,2.753387856
19.30552692,2.176562584,-0.552681747,-2.437184973,3.314023595
19.31552092,2.342572053,-0.082475342,-2.579276406,3.485270834
19.32551392,2.334603906,0.089022689,-2.442646272,3.380062315
19.33550792,2.21647407,0.027775005,-2.222907323,3.139242858
19.34550092,2.028467961,-0.16045074,-2.032160039,2.875778352
19.35549492,1.822334898,-0.368523252,-1.924324518,2.675768809
19.36548792,1.695760659,-0.467318904,-1.825950378,2.535367025
19.37548092,1.586275639,-0.473898629,-1.808635603,2.451940672
19.38547492,1.537603416,-0.351766045,-1.76059254,2.363820997
19.39546792,1.494840389,-0.181485002,-1.938887594,2.454948003
19.40546192,1.323516386,-0.037023108,-2.282550092,2.638768891
19.41545492,1.10327136,0.11240088,-2.610597602,2.83638176
19.42544792,0.940490212,0.278471928,-2.870960081,3.033888634
19.43544192,0.840679776,0.500023148,-3.012135256,3.166974019
19.44543492,0.842830382,0.837724008,-3.104945771,3.324580095
19.45542892,0.904217668,1.37492686,-3.176593459,3.577538185
19.46542192,0.827991464,1.719702376,-3.115469005,3.653641095
19.47541592,0.739221521,1.924289728,-3.225627624,3.828056032
19.48540892,0.828880387,2.083878954,-3.312737104,4.000477636
19.49540192,1.016196964,2.335215525,-3.11829321,4.026119765
19.50539592,1.266823245,2.625175003,-2.49479525,3.836715818
19.51538892,1.18826349,2.695367903,-2.008603946,3.565314582
19.52538292,0.89642925,2.60794355,-1.486700773,3.132927409
19.53537592,0.725926122,2.491801768,-0.65279368,2.67622577
19.54536892,0.743313037,2.315810809,0.288899231,2.449276779
19.55536292,0.508679549,2.024719603,0.571809159,2.164534608
19.56535592,0.055495924,1.743053524,0.787674327,1.913568978
19.57534992,-0.612569515,1.552075421,0.917608815,1.904254568
19.58534292,-1.228309682,1.496491643,0.881682352,2.127344749
19.59533692,-1.79776709,1.408824339,0.658571899,2.377071618
19.60532992,-2.263000219,1.273337628,0.599290488,2.664902962
