Time (s),Linear Acceleration x (m/s^2),Linear Acceleration y (m/s^2),Linear Acceleration z (m/s^2),Absolute acceleration (m/s^2)
0.016484583,-0.569062722,0.551039264,-1.020944903,1.292209405
0.026479583,-1.087416928,0.817227325,-1.436967865,1.978689647
0.036474583,-1.503336394,1.234764715,-1.794777701,2.646864411
0.046470583,-0.99181349,1.394007202,-1.41766679,2.221875155
0.056465583,0.25954767,1.588381514,-0.470069361,1.676689008
0.066461583,0.98024682,1.420585136,-0.664406835,1.849427587
0.076456583,1.057319554,0.275486888,-2.77338467,2.98085226
0.086451583,1.282439696,-0.188942249,-4.479322116,4.663118845
0.096447583,1.844774027,0.677740826,-4.396220317,4.815524573
0.106442583,2.455667144,1.497524554,-3.231487704,4.326129181
0.116438583,2.350589171,1.17228897,-1.868936183,3.223732827
0.126433583,2.08087407,0.444516444,1.402923621,2.548691125
0.136428583,1.053627038,-2.799214453,-1.274761425,3.251268703
0.146424583,0.114538476,-5.28640803,1.712257701,5.557972234
0.156419583,0.48902311,-5.183251451,0.95881122,5.293822642
0.166414583,0.357386498,-5.067704623,3.030090301,5.9153024
0.176410583,0.183594093,-4.150928159,2.884275945,5.057959974
0.186405583,0.680525855,-2.351106357,0.713093677,2.549376224
0.196401583,1.186243058,-0.110500681,-2.416565351,2.694284894
0.206396583,1.448161482,0.615254556,-4.50700225,4.773759433
0.216391583,1.779381106,0.238509973,-4.662922933,4.996592279
0.226387583,1.789044799,-0.283043244,-5.367589018,5.664963074
0.236382583,2.374154912,-0.878772778,-7.615048215,8.024824762
0.246377583,3.149768187,-1.516481811,-8.502707591,9.193301534
0.256373583,2.107025595,-2.032241315,0.230361001,2.936431136
0.266368583,1.343749799,-3.259933239,-6.359270945,7.271392934
0.276364583,2.06343358,-3.641183394,-3.101394757,5.209090523
0.286359583,4.092668549,-2.186695517,-2.705510191,5.371346063
0.296354583,5.077062507,-0.157808749,-4.931076828,7.079335137
0.306350583,3.563067516,0.95123966,-2.261633433,4.32611752
0.316345583,4.392141885,0.896101586,-1.8729655,4.85817951
0.326341583,4.312190566,0.798596634,-2.407467084,5.002863362
0.336336583,2.241759624,0.631791651,-2.351147872,3.309462678
0.346331583,1.320067406,-0.598813063,-2.772605821,3.128657552
0.356327583,1.705463383,-3.576760818,-3.076696118,5.01676014
0.366322583,3.512333857,-6.533294023,-2.33878335,7.777552795
0.376317583,6.138941427,-6.811839589,-1.38028788,9.273238651
0.386313583,5.766878418,-4.794417165,-1.007307442,7.566901012
0.396308583,-0.168591599,-1.983804443,1.701464326,2.618947125
0.406304583,-9.602183524,0.716970965,5.719330029,11.19940676
0.416299583,-3.818872091,-0.680990416,-2.114046201,4.417773572
0.426294583,1.113291149,-2.528287809,-2.962305869,4.050544715
0.436290583,1.514392601,-3.155122483,-0.912481391,3.616739571
0.446285583,-1.606741771,-4.4002356,2.170665375,5.162894598
0.456280583,-3.985363955,-4.486189671,4.941565563,7.773550915
0.466276583,-3.97569383,-4.184937319,4.897164146,7.569812314
0.476271583,-3.605966198,-5.052251016,2.859073861,6.833925366
0.486267583,-4.078352226,-7.86012198,2.009238369,9.080281562
0.496262583,-4.666768062,-10.68037793,2.112220993,11.84528068
0.506257583,-4.907248839,-11.90236999,3.771776862,13.41543153
0.516253583,-5.005424175,-12.42971633,5.811084538,14.60550659
0.526248583,-4.062347812,-13.37400658,4.866751608,14.80040516
0.536243583,-2.59522761,-13.61268291,1.535309846,13.94265106
0.546239583,-1.299271783,-13.01327898,-0.745966577,13.09923674
0.556234583,-1.941363305,-13.38109107,-0.967382726,13.55574856
0.566230583,1.6033422,-12.82966705,-0.463944914,12.93778605
0.576225583,7.82688816,-9.669631741,0.947455342,12.47636277
0.586220583,11.36599086,-8.771538008,0.258532301,14.35940341
0.596216583,13.70105071,-7.956683484,-1.973932296,15.96633994
0.606211583,15.87672364,-4.625782589,-2.685995108,16.75359029
0.616207583,17.82101055,1.352052845,-1.044684598,17.90273247
0.626202583,18.55374619,6.86352079,-0.011511998,19.78255666
0.636197583,16.59697314,8.205278442,-0.336580936,18.51754299
0.646193583,13.605423,6.968685302,-1.243836671,15.33679365
0.656188583,12.1920048,5.975346859,-2.11496129,13.74128132
0.666183583,11.39388793,4.735091608,-2.471105255,12.58364557
0.676179208,9.86665952,2.525331164,-1.997028798,10.37865076
0.686174208,8.448793924,-0.163744842,-1.050447614,8.515419622
0.696170208,7.377976364,-1.046491388,0.113999071,7.452695838
0.706165208,7.479237276,-0.048828344,1.553856044,7.639099622
0.716160208,8.033895382,0.646440681,4.514025341,9.237845275
0.726156208,9.432310799,1.950090859,2.574277037,9.969866781
0.736151208,18.50406825,10.69073803,-12.8785182,24.95092488
0.746146208,17.37014228,11.68404665,-22.55493739,30.77278001
0.756142208,10.20500281,3.92031602,-11.76083462,16.05702933
0.766137208,6.735753865,0.58431343,-6.416240367,9.320941088
0.776133208,4.391221533,0.054856238,-7.046628102,8.30305988
0.786128208,2.5053255,-0.468591185,-3.38715988,4.238995826
0.796123208,2.447190728,-0.91031149,-3.264468339,4.18021088
0.806119208,1.055216603,-2.064503328,-2.406495861,3.341687957
0.816114208,0.470323715,-1.503204539,-0.909115734,1.818603778
0.826109208,1.783803062,0.512434777,-2.384001038,3.021258631
0.836105208,2.88447592,0.956538407,-1.498995713,3.388532899
0.846100208,2.993197294,1.785683527,-1.143673135,3.668226266
0.856096208,0.541091981,1.498685811,-2.845893068,3.261586584
0.866091208,2.530008937,-1.056971353,1.039410995,2.932321414
0.876086208,0.995869703,-4.957461219,3.487313329,6.142437013
0.886082208,-1.351445319,-2.804135177,2.760631308,4.160608581
0.896077208,-0.241481236,-3.719395165,0.350307274,3.743651796
0.906072208,-0.076479827,-5.492113661,0.003738125,5.492647413
0.916068208,-1.611984385,-3.171588827,-1.283582096,3.782202049
0.926063208,-0.70021226,-2.905649858,0.008128507,2.988839972
0.936059208,-1.129637625,-3.103597988,-0.525203342,3.344284705
0.946054208,-0.725205014,-2.103054605,-0.196691271,2.2332596
0.956049208,-0.48160007,-1.659386593,0.343049418,1.761586045
0.966045208,-0.823328894,-1.105735377,-0.509474332,1.469722861
0.976040208,-0.35662636,-1.149608206,-0.823238847,1.458253609
0.986035208,-0.720213831,-0.306829718,-1.430424246,1.630633607
0.996031208,-0.220814837,-0.30948143,0.900746907,0.97769266
1.006026208,-0.586390945,1.389913566,-1.916605609,2.439075875
1.016021208,-0.784451342,4.182518619,-2.257942378,4.817377885
1.026017208,2.379284089,3.017970777,3.473082376,5.179907487
1.036012208,4.520533292,4.112470145,2.112925875,6.466226696
1.046008208,3.09887987,5.350383001,-0.314038165,6.190983336
1.056003208,0.912084365,6.031522813,-3.110251827,6.847249942
1.065998208,0.187196855,5.336563107,-4.952607445,7.283012355
1.075994208,0.36976213,6.187771525,-7.798877074,9.962315197
1.085989208,-0.707650504,5.914317715,-9.013549587,10.80388816
1.095984208,-2.184113386,6.470041183,-9.135537708,11.40569303
1.105980208,-1.1202622,5.991654158,-7.450205265,9.626030617
1.115975208,-2.643661852,5.489328632,-7.056658416,9.322987977
1.125971208,-2.746796796,4.446966548,-6.041046174,7.988406787
1.135966208,-1.390439816,1.334076165,-4.246847931,4.663560812
1.145961208,5.141491807,3.684236442,-1.540809298,6.510194272
1.155957208,6.826550015,5.2074139,3.198484557,9.162382228
1.165952208,5.576312982,5.039369016,4.099077682,8.561129855
1.175947208,2.732551224,4.898311955,3.532505289,6.628641627
1.185943208,-1.926089208,2.904563445,0.992500684,3.623722678
1.195938208,-3.98260407,1.984754323,-0.526535922,4.480806286
1.205934208,-5.429696973,0.624003452,-1.443023826,5.652725651
1.215929208,-4.048731986,0.380409325,-1.674925568,4.397990178
1.225924208,-3.985020139,-2.600321412,4.809407964,6.765534859
1.235920208,-3.138717535,-7.714684185,8.593638226,11.96739394
1.245915208,-3.994245291,-10.35580484,6.769032708,13.00063433
1.255910208,-2.976025191,-5.35192842,0.228201551,6.127963748
1.265906208,0.052558283,1.29216917,-5.063781141,5.226312561
1.275901208,1.033912858,2.586066778,-6.00928059,6.623305095
1.285897208,1.225090497,1.400561931,-5.679730931,5.976768683
1.295892208,1.124894949,-0.011152979,-4.984998681,5.110354673
1.305887208,1.119814303,-0.718543282,-4.549686339,4.740246229
1.315883208,1.559977494,-1.422860872,-3.15620948,3.79733079
1.325878208,2.022703922,-2.452885332,-0.993380544,3.330883143
1.335873208,2.460194936,-2.634969673,-0.267548196,3.614859104
1.345869208,2.605798207,-1.672713859,-0.865879083,3.215260881
1.355864208,1.739519759,-0.696206625,-1.770738044,2.578012001
1.365860208,0.558714319,-0.136013837,-1.984746721,2.066369038
1.375855208,0.153871819,0.434965602,-1.441800588,1.513823156
1.385850208,-0.439877263,0.020304456,-1.130284327,1.213032126
1.395846208,-0.472236924,-0.162317537,-0.397438756,0.6382102
1.405841208,0.381265942,1.217777385,-0.948607829,1.590032166
1.415836208,1.524984832,2.668928548,-1.22654353,3.309556974
1.425832208,2.197087773,1.537438817,-1.399404767,3.02477214
1.435827208,3.147785397,0.626144118,-1.585363766,3.579663061
1.445822208,3.457412422,0.787514114,-0.608631415,3.597820359
1.455818208,3.60252862,0.433766045,0.03045515,3.628676475
1.465813208,3.062011421,-0.898080576,0.346221167,3.209724561
1.475809208,2.113821083,-2.465050756,0.541804172,3.292152269
1.485804208,-1.169824369,-3.927962424,1.401526136,4.331472425
1.495799208,-4.472633486,-1.813792554,-3.570075989,6.003310445
1.505795208,9.004595745,0.601270355,-5.758687638,10.7054544
1.515790208,2.178406504,0.350977658,4.905700496,5.379083339
1.525785208,-2.134593902,1.981381064,4.016570545,4.961370878
1.535781208,-2.944772993,0.432171802,0.095396154,2.977845005
1.545776208,-3.367929558,-1.66415412,2.104072605,4.305749641
1.555772208,-2.894465303,-2.441587634,5.465916381,6.649475276
1.565767208,-2.242328265,-1.100220868,4.743636729,5.361027086
1.575762208,-1.738421652,0.62736414,3.289086871,3.772769281
1.585758208,-1.241908844,1.48055301,2.228869729,2.949955095
1.595753208,-0.927214036,1.614395776,1.527392277,2.408096086
1.605748208,-0.314025301,1.03508347,1.898840014,2.185315327
1.615744208,0.393333426,0.900433204,2.257811108,2.462357029
1.625739208,1.28104075,1.469289811,2.335425733,3.042053797
1.635734208,1.913104296,2.15624965,2.114767163,3.575139263
1.645730208,2.095262606,2.705648185,1.142988061,3.607918956
1.655725208,1.925099859,3.45166344,-0.405843544,3.972996219
1.665721208,1.25869503,4.358649033,-1.09789543,4.667709176
1.675716833,1.898833582,6.258341571,-2.225259658,6.908269591
1.685711833,3.773156805,9.632330598,-1.598425276,10.46773464
1.695707833,4.458473284,11.37529144,-0.37377851,12.22354081
1.705702833,5.233791275,10.80986686,-1.546675079,12.10941768
1.715697833,6.459026198,4.07292484,-3.690231593,8.48089296
1.725693833,3.746999871,-6.684407126,-2.393892334,8.028201988
1.735688833,-2.549252123,-13.36494924,3.631524378,14.08220593
1.745684833,-5.139402012,-16.33586104,11.22020107,20.47356151
1.755679833,-5.09926263,-13.82080636,9.273492236,17.40732105
1.765674833,-9.352827258,-6.927180596,2.860232195,11.98507976
1.775670833,-5.37088217,-3.236322182,-1.697751929,6.496346524
1.785665833,-1.376460292,-3.032162554,-2.523555365,4.178155618
1.795660833,-1.497591797,-2.578250805,0.557315665,3.033275317
1.805656833,-2.486006885,-2.571578547,2.36681841,4.288948104
1.815651833,-3.383551564,-3.275275748,2.929191917,5.545810824
1.825646833,-3.56172558,-4.015051146,3.30492347,6.303097965
1.835642833,-3.183518316,-3.403203763,3.130371219,5.613894254
1.845637833,-3.459673541,-3.146474743,2.936617881,5.522080124
1.855633833,-6.061042482,-6.056945338,1.557670183,8.709142276
1.865628833,-8.585063285,-8.959962194,-0.455965292,12.41741271
1.875623833,-8.436152244,-7.795940602,-0.973064393,11.52788831
1.885619833,-3.672322156,-3.155519801,4.420465212,6.556200723
1.895614833,11.583105,7.545635918,4.413349151,14.51146421
1.905609833,21.2333614,12.27936805,-1.746391407,24.59041275
1.915605833,17.06168762,13.90474899,-4.473473146,22.46007994
1.925600833,5.862479224,10.35736137,-6.799203172,13.70666848
1.935595833,-0.3066046,3.84094533,-4.786363503,6.144602753
1.945591833,-0.421957301,2.578265423,-5.810971102,6.371254641
1.955586833,0.628010842,3.678978626,-4.737257416,6.030828233
1.965582833,1.196557254,4.918342761,-2.865457267,5.816587498
1.975577833,0.308326605,7.150068855,-0.115606507,7.157647295
1.985572833,-3.050077838,9.357241321,2.925015836,10.26726145
1.995568833,-2.236613781,10.06669744,3.208642048,10.79982511
2.005563833,-0.816486483,8.434223832,3.032432696,8.99991277
2.015558833,1.076912697,4.348273734,0.358235478,4.493946826
2.025554833,3.252292682,-2.209570409,0.321146625,3.944964415
2.035549833,1.673585386,-6.457912304,4.002671714,7.779903612
2.045544833,-1.423571894,-7.317886283,3.963647397,8.443252766
2.055540833,-1.528417733,-6.61563276,-0.754154579,6.831647437
2.065535833,-0.631327382,-3.410472144,-3.093669416,4.647653705
2.075531833,0.070205179,0.06308444,-2.300789897,2.30272503
2.085526833,1.006452579,1.290085807,-0.953877339,1.89397734
2.095521833,1.259478557,0.598108181,-0.232700454,1.413566105
2.105517833,0.985033643,-0.917298328,-0.008565604,1.346031526
2.115512833,0.738454805,-1.829742882,-0.762147723,2.115217167
2.125507833,0.916977316,-1.970098861,-0.988225054,2.387200385
2.135503833,0.942540758,-1.865549476,-0.869793209,2.263890049
2.145498833,0.696358945,-1.635631694,-0.767977982,1.936490899
2.155493833,0.184012461,-1.085109324,-0.950642075,1.454318805
2.165489833,-0.355291441,-0.348864766,-0.726837557,0.881039992
2.175484833,0.066042547,0.293591037,-0.245955525,0.388653361
2.185480833,0.437136673,0.302913253,0.576016157,0.783989492
2.195475833,0.873761714,0.235616478,-0.666261061,1.123778652
2.205470833,-0.028871212,-0.675922927,-2.996830169,3.072246151
2.215466833,0.629908848,-0.644696456,-4.960601758,5.041823924
2.225461833,1.941732264,-1.536628393,-3.41832554,4.220959666
2.235456833,3.463337991,-0.482146785,1.104212762,3.666941693
2.245452833,6.578606436,1.661930131,0.959099561,6.852732767
2.255447833,8.858364483,2.786065527,-0.79002542,9.319706143
2.265442833,8.196648536,1.797106647,-1.584539309,8.539637249
2.275438833,7.217831068,0.825954879,-1.85532562,7.498101089
2.285433833,7.051035149,0.902655146,-1.279405283,7.222794532
2.295429833,8.097054082,1.960772552,-1.08504325,8.401442296
2.305424833,8.097535892,0.902442307,-0.820608185,8.188888046
2.315419833,7.66360057,-0.915502648,0.179728225,7.720182707
2.325415833,6.820119832,-0.960198764,-1.61479748,7.074149213
2.335410833,4.22075707,-0.702820703,-2.057889542,4.748016065
2.345405833,1.890963814,-1.146412117,-0.481932777,2.263241943
2.355401833,0.505136282,-2.15925161,-0.304533516,2.238363429
2.365396833,0.306616294,-1.547491935,1.128747094,1.939797629
2.375391833,2.544367944,0.953331794,2.420210506,3.638690511
2.385387833,5.177856225,2.135211368,2.19852268,6.016878314
2.395382833,5.712641984,2.068084747,3.153383521,6.845077106
2.405378833,3.330497437,1.606813692,4.420635366,5.76333935
2.415373833,0.135981093,0.904259622,3.086946287,3.219536256
2.425368833,-4.018100762,-0.145174085,1.641238589,4.342795569
2.435364833,-7.60145987,-0.665516637,1.145248522,7.716002769
2.445359833,-7.072109683,-0.100836403,-0.195863159,7.07553996
2.455354833,-2.852058957,1.13088776,0.451883351,3.101184609
2.465350833,-1.073673339,0.622833132,1.106903505,1.663108811
2.475345833,-1.478067359,-0.404447229,1.136303305,1.907733178
2.485340833,-3.256369945,-1.685959264,1.520045543,3.96950152
2.495336833,-3.203743835,-2.0274963,3.793454829,5.363302653
2.505331833,-1.799940793,-0.689007533,4.556088456,4.946964752
2.515327833,-1.379686786,2.282916713,2.748073243,3.82977165
2.525322833,-5.93044492,0.002723341,2.057596889,6.277251733
2.535317833,-8.425402722,-10.58226048,7.474300472,15.45434617
2.545313833,-1.222656301,-9.200504367,6.180885844,11.15112187
2.555308833,1.181867879,-4.846450076,8.080515232,9.496294879
2.565303833,-1.290386939,-2.910748922,5.980121695,6.774910569
2.575299833,2.672800866,3.755172524,-0.409193999,4.627377755
2.585294833,2.860716929,4.127891591,-3.1988924,5.954502744
2.595289833,-1.639922966,-0.828976135,-1.766138916,2.548685041
2.605285833,-2.821375692,-1.232915241,1.689239844,3.511947044
2.615280833,-3.826587492,-1.366177671,0.666734904,4.117493011
2.625275833,-5.483479663,-1.387005453,-1.18112192,5.778181576
2.635271833,-4.573348852,-0.262028644,-1.60089821,4.85253066
2.645266833,-3.984778649,0.140012164,-2.678569729,4.80341546
2.655262833,-3.208203506,1.874474081,-1.760941911,4.111829184
2.665257833,-2.886071041,1.665969096,-1.388019068,3.609910804
2.675252458,-2.925196515,0.9601017,-0.26572116,3.090174374
2.685248458,-2.776321142,2.198028298,0.175451845,3.545429569
2.695243458,-3.386765193,2.574421463,-0.618067359,4.298817466
2.705238458,-3.649389961,2.357897021,-0.293935145,4.354781661
2.715234458,-3.828656822,2.110816199,-0.457533223,4.395849717
2.725229458,-3.588182477,1.820141461,0.903418207,4.123606781
2.735224458,-3.252081013,1.905233944,1.165671384,3.945216986
2.745220458,-3.01113889,2.297687364,1.576245618,4.102544928
2.755215458,-3.433590866,1.378277022,1.644455435,4.048879779
2.765210458,-3.069373065,0.292995498,0.731792195,3.16897731
2.775206458,-1.439216119,-1.794884706,0.014300828,2.300686562
2.785201458,0.99770456,-1.386768934,1.157664499,2.063668955
2.795197458,1.775043349,-0.469327057,0.390603653,1.877130254
2.805192458,1.505810058,0.723992887,0.227431546,1.686224997
2.815187458,2.155338069,2.131056336,1.014952092,3.196405958
2.825183458,1.428673005,0.172476782,-3.146635542,3.460082373
2.835178458,1.775939142,0.702873913,-4.050341139,4.478086078
2.845173458,2.031530294,2.207963594,-4.22800177,5.184420656
2.855169458,2.486085237,4.65313294,-0.276800757,5.282886013
2.865164458,2.498951451,3.687218522,2.598708166,5.156900514
2.875159458,1.298052639,0.871452356,-1.67043286,2.287950131
2.885155458,0.631355449,1.522724884,-3.514950194,3.882289999
2.895150458,-0.519665444,1.111280876,-4.947385882,5.097217321
2.905146458,0.562113891,2.16469566,-2.585662735,3.418703132
2.915141458,1.572218056,2.201140478,-0.21473841,2.71348514
2.925136458,0.570517509,1.304085504,-0.706929834,1.589301425
2.935132458,-0.797440932,1.177073747,-0.760022845,1.612156745
2.945127458,-1.914077858,0.795508135,-0.357443216,2.103400316
2.955122458,-2.050403352,0.96189855,-1.125830503,2.529208779
2.965118458,-2.290195912,0.382433631,-1.902178774,3.00158906
2.975113458,-1.967064157,0.183157014,-1.73172776,2.627121794
2.985108458,-1.336678761,-0.937937245,-1.563771168,2.260932695
2.995104458,-0.902204325,-2.550446125,-0.346834613,2.727460784
3.005099458,-1.587602665,-3.680324655,1.041416297,4.141234079
3.015094458,-0.016494995,-3.316363547,0.91289976,3.439756566
3.025090458,1.53847202,-2.179268383,-2.693356461,3.790814671
3.035085458,4.06107195,-5.182359166,0.116497878,6.585037863
3.045081458,4.169775197,-2.613492558,1.588562485,5.171160345
3.055076458,2.763099418,-0.478701605,-2.659853669,3.865060822
3.065071458,2.601706325,-0.615821151,-3.090965078,4.086829653
3.075067458,0.926873143,-1.414743767,-0.195563928,1.702597721
3.085062458,-2.328850685,0.150530135,1.173939347,2.612343474
3.095057458,-4.672811159,0.245585981,4.356046145,6.393012954
3.105053458,-4.593617055,-0.084309833,7.133246416,8.484788166
3.115048458,-4.41396077,-0.249276159,10.35585045,11.26005447
3.125043458,-8.446877207,0.059380229,12.32211236,14.93946832
3.135039458,-9.631744123,-1.119920722,12.45377997,15.78357858
3.145034458,-8.531026241,-0.305619344,8.48243354,12.0342632
3.155029458,-2.204868955,1.126605259,1.782433645,3.050861553
3.165025458,4.309665446,4.21510749,1.200645627,6.146698084
3.175020458,3.958372039,0.263850929,3.827141808,5.51228999
3.185016458,0.203959945,0.733402811,3.459827907,3.542582178
3.195011458,-2.809870126,-0.097108219,1.414859104,3.147479375
3.205006458,-8.253642517,-2.732699744,1.212880634,8.778458983
3.215002458,-8.147875156,-4.565614155,-8.553167893,12.66449301
3.224997458,6.768239826,-0.888629429,-8.767016941,11.11122489
3.234992458,13.61708235,-1.944556469,0.840139932,13.78085871
3.244988458,7.879104965,-7.868040864,5.936193902,12.61842938
3.254983458,4.873262483,-9.556595122,4.387098953,11.58981599
3.264978458,4.85445316,-8.013450007,-1.605111129,9.505655066
3.274974458,6.649839556,-5.026313353,-3.498500222,9.04011592
3.284969458,6.534418443,-4.038798736,-2.426858644,8.056063709
3.294964458,3.23139064,-3.386952304,-1.580111358,4.940656159
3.304960458,-0.647216752,-3.069742025,-2.698058207,4.137840464
3.314955458,-0.802447172,-3.271593756,-3.845865762,5.112526834
3.324950458,1.563684191,-3.564580775,-3.04441364,4.941639279
3.334946458,1.806428425,-4.483475978,-0.827757429,4.904072069
3.344941458,-0.105891467,-4.694592623,0.871710949,4.776012235
3.354937458,-3.630595548,-3.435366665,1.301809036,5.165043555
3.364932458,-7.420693198,-1.28256161,-1.596592759,7.698101082
3.374927458,-5.397915602,0.59466534,-2.872877383,6.143658858
3.384923458,-8.827908676,-0.985982062,6.489770858,11.00096623
3.394918458,-3.336978199,-3.885542629,8.455872563,9.886083442
3.404913458,0.174315439,0.939129492,1.25997557,1.581103574
3.414909458,-1.11514881,5.093385594,-0.136274002,5.215812907
3.424904458,-1.60578809,6.875656101,-1.037705362,7.136528192
3.434899458,-1.22881108,8.701721084,-2.037511411,9.021162854
3.444895458,-1.904256582,8.352720662,-2.524034836,8.931119048
3.454890458,-2.216784119,6.347465417,-1.188475233,6.827658634
3.464885458,-1.019735991,6.010597383,-0.693380374,6.135789984
3.474881458,1.808511642,9.916431019,-1.972524871,10.27118167
3.484876458,2.813116793,8.812102482,-0.487829255,9.263085535
3.494871458,3.388278745,3.83984313,-2.829809716,5.850867555
3.504867458,3.44005087,1.099101126,-5.817595997,6.847364198
3.514862458,2.148540096,1.000410066,0.398279001,2.403262575
3.524858458,3.031250096,0.698001428,0.689694874,3.186120236
3.534853458,3.970889758,-1.217844043,1.586168928,4.446014108
3.544848458,4.146714948,-4.614467057,3.382150571,7.065938972
3.554844458,5.996972201,-6.792380056,3.476180815,9.704840826
3.564839458,8.659167387,-6.986608188,1.820783632,11.27426835
3.574834458,7.531990271,-6.491801596,-5.093431202,11.17217109
3.584830458,0.829066913,-4.543554364,-9.676901,10.7225767
3.594825458,-3.844886938,-2.559631516,-6.525648204,7.994932992
3.604820458,-3.220413077,-1.191526895,-1.585135725,3.781990481
3.614816458,-0.500513766,-0.338622783,1.791729548,1.890892433
3.624811458,2.346239281,-0.042237947,2.641479086,3.533275332
3.634806458,4.918816386,-0.072886713,1.092265731,5.03915782
3.644802458,6.618889074,-0.076220795,-0.637634189,6.649968387
3.654797458,7.671912387,-0.044021348,-1.613409936,7.839851349
3.664792458,7.656830664,-0.049272732,-2.673568898,8.110330096
3.674788458,7.286191451,-0.332237039,-3.317872129,8.012942205
3.68478325,6.927439628,-0.320696974,-3.798371753,7.906952278
3.69477925,6.697896068,-0.693148239,-3.601643937,7.636367282
3.70477425,6.762373314,-1.413872532,-2.758709913,7.439032784
3.71476925,6.962559174,-1.938882331,-2.373074492,7.607100466
3.72476525,6.74815581,-1.434093958,-3.267460944,7.633513826
3.73476025,6.196987907,-0.230348137,-4.025527603,7.393280183
3.74475525,5.919170319,0.909149063,-3.494621764,6.933650594
3.75475125,6.177729517,1.680764013,-2.851864244,7.008740209
3.76474625,6.354606037,1.74640661,-2.314570615,6.984854405
3.77474125,6.224425966,1.051900647,-1.204896553,6.426643703
3.78473725,5.113765479,0.433931814,0.608120953,5.168046564
3.79473225,3.156107154,-0.263372042,2.071779603,3.784527437
3.80472725,0.920627732,-1.288649147,2.943624015,3.342617894
3.81472325,-1.310059896,-2.52586443,3.394813886,4.429560855
3.82471825,-2.88926976,-4.3380031,3.40599844,6.226313196
3.83471325,-3.279913467,-6.631844165,3.637350544,8.244362217
3.84470925,-3.792024893,-8.625230148,4.674052523,10.51764303
3.85470425,-4.142313164,-9.111208613,5.278548203,11.31529725
3.86470025,-3.782033171,-7.815172094,4.690610669,9.868258114
3.87469525,-2.572018257,-4.992300099,3.834658989,6.800216743
3.88469025,-1.294671779,-2.528746523,2.38749665,3.710912858
3.89468625,-0.616909318,-1.164432067,0.96485958,1.633227833
3.90468125,-0.711799688,-0.960409264,-0.550480124,1.316082489
3.91467625,3.12864249,1.072344852,0.584870377,3.358630773
3.92467225,6.582697148,2.558243387,1.457825614,7.211225034
3.93466725,7.213652648,1.481863956,2.075034163,7.651043856
3.94466225,6.4032882,0.458768447,3.40429193,7.266482767
3.95465825,3.827147071,-0.71043027,3.418921079,5.180809513
3.96465325,1.588011385,-1.46070756,4.353423084,4.858779609
3.97464825,-0.171031643,-0.621433893,6.404732462,6.4370824
3.98464425,-2.138578194,0.274782883,6.721389595,7.058760544
3.99463925,-3.479904322,1.119302672,6.095343418,7.10744567
4.00463425,-3.81178205,1.744813244,5.603708941,6.998257608
4.01463025,-3.945252056,1.244959921,5.575515422,6.942716414
4.02462525,-3.736240701,1.150782326,5.197504624,6.50367964
4.03462025,-3.497925441,1.023131177,4.987645715,6.177288206
4.04461625,-3.595573357,1.118837233,5.192086594,6.41386839
4.05461125,-4.414517425,1.258612584,5.00129604,6.788595717
4.06460625,-5.216016909,1.630292602,4.916198003,7.350761128
4.07460225,-6.354865068,1.574254641,4.710936175,8.065699434
4.08459725,-6.90225567,1.5560698,4.13138004,8.193338
4.09459225,-6.963108813,1.92009932,3.714106944,8.121961347
4.10458825,-6.902893016,2.43599331,3.387183854,8.065792575
4.11458325,-6.488411965,2.96468744,3.345395558,7.879120058
4.12457925,-5.955624785,3.362684605,3.200007172,7.550970814
4.13457425,-5.845846235,3.24444338,2.501139479,7.13834923
4.14456925,-5.23370649,2.990094761,1.749531362,6.276401062
4.15456525,-4.624523098,2.374584097,0.88104793,5.272675694
4.16456025,-3.507250288,1.502932059,-0.126402477,3.817798703
4.17455525,-1.611562508,0.490326455,-1.3187205,2.139293693
4.18455125,0.454564299,-0.530800297,-2.228288808,2.335304834
4.19454625,2.048580482,-1.339548574,-2.472422341,3.479072377
4.20454125,3.27429517,-1.596516745,-3.176727652,4.833370786
4.21453725,3.799494126,-1.321547336,-3.929339736,5.623375653
4.22453225,3.54413891,-1.338248153,-4.863347944,6.164736974
4.23452725,3.671545646,-0.838242803,-5.719428263,6.847974743
4.24452325,4.655875869,-0.481826357,-5.63455008,7.325127395
4.25451825,7.274420421,-0.743336645,-4.36264502,8.514834902
4.26451325,9.549864977,-1.994348434,-2.300722069,10.02350581
4.27450925,10.71484259,-2.760712584,-3.54337731,11.61830058
4.28450425,8.406938385,-2.056057609,-5.618003629,10.31823389
4.29449925,3.755339754,0.399943119,-4.790077654,6.09978484
4.30449525,0.112548376,2.738180923,-2.38326195,3.631836922
4.31449025,-1.940209942,3.946612703,0.901760083,4.489246896
4.32448525,-3.555527532,3.322382671,4.186360532,6.419160159
4.33448125,-5.096330836,1.249075776,5.857384545,7.863951424
4.34447625,-5.555023854,-0.452139459,5.558645035,7.871547163
4.35447125,-5.572588305,-4.013829955,3.603389915,7.755578006
4.36446725,-5.142856547,-9.037866987,1.290630183,10.47844165
4.37446225,-3.167055773,-13.08894078,-1.602873838,13.56170408
4.38445725,0.701533439,-13.94392767,-6.523498768,15.41042843
4.39445325,3.059119973,-11.78579873,-7.066240833,14.07817553
4.40444825,1.895257717,-6.984284504,-2.909174267,7.799713249
4.41444325,-1.123385782,-0.289475182,-0.277307564,1.192766105
4.42443925,-5.4078623,3.633915889,1.82482128,6.766113512
4.43443425,-7.124967928,4.968086194,4.963396143,10.00411664
4.44442925,-6.888902968,5.679779463,5.893058993,10.69789807
4.45442525,-7.232566636,5.981616243,5.780206561,11.02272838
4.46442025,-7.306343295,6.376246582,4.82087377,10.82958894
4.47441525,-6.676908656,5.715694231,3.018764244,9.293180688
4.48441125,-5.73974032,3.252029557,2.605263187,7.092792924
4.49440625,-4.055103697,-0.205531384,4.430472722,6.009592139
4.50440225,-1.49331105,-3.08035589,6.204070054,7.085834851
4.51439725,2.028892322,-4.226725908,7.179972686,8.575174851
4.52439225,5.297582059,-3.901726552,7.604093456,10.05535097
4.53438825,7.530034377,-3.113345881,6.252072186,10.27047939
4.54438325,8.476074693,-1.799549029,3.403569506,9.309484642
4.55437825,7.39111155,0.605634717,-0.549741182,7.436231486
4.56437425,4.407543451,1.95170586,-3.3025916,5.843176047
4.57436925,0.196521117,1.021758835,-3.709280067,3.852449907
4.58436425,-2.55401088,0.663839071,-2.92377915,3.938545214
4.59436025,-2.874851988,0.614372211,-0.993705649,3.103172261
4.60435525,-2.320111729,0.321403318,1.328295608,2.692691543
4.61435025,-2.099451989,0.162623346,2.825319055,3.523715762
4.62434625,-1.73689816,0.119500716,2.117789004,2.741555381
4.63434125,-1.021071495,0.373421903,0.002901973,1.087216325
4.64433625,-1.165651504,0.262854563,-1.557280174,1.96289518
4.65433225,-1.599214797,0.143189541,-2.092587504,2.637596192
4.66432725,-1.593256191,0.156439331,-2.141372579,2.673652011
4.67432225,-1.418842519,0.430983648,-1.817700541,2.345825283
4.684317833,-0.740514925,0.950833864,-1.224235634,1.717905783
4.694312833,0.083768673,1.42162711,-0.410386831,1.482045269
4.704307833,0.853243396,1.905309958,0.230171113,2.100287854
4.714303833,1.574385765,2.50190254,0.541724577,3.005274093
4.724298833,1.945496848,2.831869106,0.415772116,3.460824623
4.734293833,2.14126806,3.240562583,-0.303539636,3.895948032
4.744289833,2.074241281,3.156490147,-0.848455111,3.871147506
4.754284833,1.705330651,2.825933597,-0.996195539,3.447674416
4.764279833,1.144387519,2.312048126,-0.992044893,2.763936034
4.774275833,0.823722266,1.541799086,-1.402578197,2.241180133
4.784270833,0.951983134,0.779385315,-1.709646481,2.106324867
4.794265833,1.209323919,0.096934556,-2.035422201,2.369557803
4.804261833,1.350339318,-0.439519413,-2.038020265,2.483972662
4.814256833,1.602324784,-0.823473905,-1.94793806,2.653302974
4.824251833,2.150860856,-1.015243283,-2.062973111,3.14845667
4.834247833,2.716553242,-0.949499529,-2.072606399,3.546393684
4.844242833,3.433507835,-0.765004672,-1.694308649,3.904470515
4.854237833,4.114673668,-0.50595957,-0.769281034,4.216435436
4.864233833,4.765691257,-0.526769226,0.198397197,4.798818648
4.874228833,5.16246343,-0.692995627,0.34864418,5.220423773
4.884223833,5.022957051,-0.964461384,-0.725882268,5.165964418
4.894219833,4.850675858,-1.237905255,-2.012950912,5.395686896
4.904214833,4.662985498,-1.759024317,-2.96231347,5.797663443
4.914209833,4.437768878,-2.336731562,-3.734424264,6.253001806
4.924205833,4.153816391,-2.573427436,-3.970117341,6.295915428
4.934200833,4.266468556,-2.6798912,-3.517745163,6.144843514
4.944195833,4.326365094,-3.020389186,-2.38794937,5.791587688
4.954191833,4.448537987,-3.099028389,-2.88560034,6.141673754
4.964186833,4.822463335,-2.660956746,-4.533464117,7.133662476
4.974181833,5.289995297,-2.388211618,-4.599188282,7.405412739
4.984177833,5.651627458,-1.644415382,-2.915547439,6.568516708
4.994172833,5.653799699,-0.625226982,-2.240375149,6.113562024
5.004167833,5.976059049,-0.211846962,-2.781971306,6.595265366
5.014163833,5.389217868,-0.239921783,-2.320979309,5.872663506
5.024158833,4.308208612,-1.009649252,-1.514039429,4.676790401
5.034153833,2.151071209,-2.166508005,0.209798682,3.060209105
5.044149833,0.168432994,-3.350969124,1.47291947,3.66426739
5.054144833,-1.797068787,-4.36989206,2.090597112,5.166818085
5.064139833,-3.592725763,-6.022191827,2.782596374,7.544356526
5.074135833,-4.495435873,-7.758357038,3.39385962,9.587456949
5.084130833,-5.099269062,-8.413431718,3.329705139,10.38630418
5.094125833,-5.044464279,-7.347994182,3.061491019,9.424031283
5.104121833,-3.960316823,-5.349535739,3.075258873,7.33204331
5.114116833,-3.0176293,-3.001813166,4.023656201,5.857198827
5.124111833,-3.076392648,-1.554779904,4.239556453,5.464006881
5.134107833,-3.016450209,-0.128026541,2.631539404,4.005042109
5.144102833,-2.415662541,0.03645622,-1.087320083,2.649343227
5.154097833,-1.450007448,-0.186120967,-2.936309148,3.280102746
5.164093833,1.578477208,0.81180871,-1.06333707,2.069132524
5.174088833,3.536855033,-0.01294749,1.370865676,3.793255049
5.184083833,2.255723652,-1.693641336,3.296514004,4.338630515
5.194079833,1.458884983,-1.316532764,3.620737435,4.119629047
5.204074833,0.938799124,0.027726327,3.248999822,3.382027852
5.214069833,-0.532373782,0.620412385,3.443908278,3.539609809
5.224065833,-2.248629517,1.179319078,4.679046338,5.32358928
5.234060833,-4.011879032,1.654152165,5.107435284,6.702036103
5.244055833,-5.155314624,1.996476821,5.030678884,7.474685184
5.254051833,-5.963823166,2.059550151,5.113205316,8.121194628
5.264046833,-6.353002145,2.306510813,5.662233138,8.817114749
5.274041833,-6.27170012,2.388026846,5.811556993,8.877560999
5.284037833,-5.952295965,2.330995443,5.687153971,8.556114031
5.294032833,-5.573325055,2.310047209,5.794769052,8.365262616
5.304027833,-5.185309671,2.564598141,5.499651307,7.981902311
5.314023833,-5.001025899,2.591958432,4.931714759,7.4866761
5.324018833,-4.818832799,2.811057696,4.089454042,6.917140253
5.334013833,-4.719539768,3.01657914,3.205008588,6.453362331
5.344009833,-4.352879293,3.344819022,2.428418242,6.002715019
5.354004833,-3.935880139,3.646676853,1.509906033,5.573977105
5.363999833,-3.717216785,3.847455035,0.333523134,5.36020975
5.373995833,-3.542376266,3.664051854,-0.731317986,5.148643666
5.383990833,-3.240309398,3.156434598,-1.263997285,4.696847188
5.393985833,-1.850412789,2.421143137,-1.828167057,3.553611735
5.403981833,-0.151955101,1.419804533,-2.091577983,2.532515295
5.413976833,1.319329195,0.484630682,-2.11930431,2.543019304
5.423971833,2.125127259,-0.212076758,-2.816583315,3.534725447
5.433967833,1.848921749,-0.673853012,-3.250619209,3.799883519
5.443962833,2.165549354,-1.117879459,-4.182433834,4.840662275
5.453957833,3.554544322,-1.570868518,-5.667088666,6.871557843
5.463953833,5.285299982,-2.246361675,-5.855202949,8.20145952
5.473948833,7.360898402,-3.365460863,-3.751795757,8.921049462
5.483943833,9.426360673,-4.277834081,-3.212305913,10.83859074
5.493939833,9.183943883,-4.53337787,-4.538766664,11.20253288
5.503934833,6.209909084,-3.520030255,-5.072637334,8.757010526
5.513929833,2.273714365,-1.585703489,-3.713644721,4.634154689
5.523924833,-0.814808916,-0.236344457,-1.254064035,1.514083511
5.533920833,-2.917108061,-0.837249945,1.082879781,3.222287314
5.543915833,-4.409671837,-3.135844213,2.658815496,6.028932284
5.553910833,-5.022184634,-5.983368069,3.759200671,8.669176525
5.563906833,-4.301037295,-9.303959153,2.828852527,10.63320198
5.573901833,-2.681019128,-11.95231924,1.133943515,12.30169203
5.583896833,-0.378145868,-10.57386856,-1.974846801,10.76335034
5.593892833,0.964982079,-5.628939677,-3.115932105,6.505780905
5.603887833,0.371036531,0.532847407,0.879171119,1.092948454
5.613882833,-1.579026846,4.043362488,5.475814548,6.987606954
5.623878833,-3.970295388,5.235027961,6.249866617,9.068053592
5.633873833,-6.318922234,6.135351822,5.305964627,10.2822459
5.643868833,-7.414630805,7.069629879,4.241687179,11.08820665
5.653864833,-7.713929309,7.172105842,2.459737684,10.81638188
5.663859833,-7.909353781,6.746113377,0.503687342,10.40776748
5.673854833,-7.547653792,5.22878372,-0.430162114,9.191969125
5.6838515,-5.979726423,2.061945171,-0.328721108,6.33378272
5.6938465,-3.71188237,-0.878641216,2.039226984,4.325335572
5.7038415,-1.241482581,-3.534281089,4.869886301,6.143957551
5.7138375,1.862554386,-5.434510401,5.931057708,8.257145855
5.7238325,5.101084623,-5.620440164,6.089054153,9.730724148
5.7338275,7.428363576,-4.433299266,4.531935947,9.765918862
5.7438235,8.993063282,-2.326202481,2.424461432,9.600230122
5.7538185,7.900787026,0.981615946,-0.15548682,7.963051026
5.7638135,4.553442591,2.659648139,-2.306666349,5.755716923
5.7738095,0.358662507,1.653373316,-2.422734164,2.954982732
5.7838045,-2.355925778,0.955826216,-1.592724826,3.000127064
5.7937995,-2.507800627,0.945152124,-0.637162904,2.754696551
5.8037955,-1.577657136,0.736774315,0.878637707,1.950344239
5.8137905,-0.82791355,0.383311298,1.563968804,1.810626084
5.8237855,-0.40891494,0.286336396,0.676154476,0.840467035
5.8337815,-0.267709214,0.249380239,-0.547869489,0.658801718
5.8437765,-0.244434226,0.40597803,-1.79798256,1.859383645
5.8537715,-0.525126889,0.914672928,-2.09062167,2.341598553
5.8637675,-0.752172519,1.054780986,-1.667742264,2.111797974
5.8737625,-0.563382736,1.067164219,-1.059941884,1.60614955
5.8837575,-0.130729124,1.297558549,-0.257655877,1.329336241
5.8937525,0.329781062,1.734418064,0.604395619,1.866080286
5.9037485,0.863935907,1.866472751,1.03935413,2.304422442
5.9137435,1.330335116,1.572206361,0.760546609,2.195462482
5.9237385,1.356742896,1.142062374,0.294335387,1.797690483
5.9337345,1.122005401,0.529573551,-0.492297551,1.334803785
5.9437295,0.46326671,0.123453434,-1.079508276,1.181183691
5.9537245,-0.261190299,0.055926864,-1.586776015,1.609101087
5.9637205,-0.572860927,0.277679009,-1.900499015,2.004288347
5.9737155,-0.533255104,0.46496708,-2.034289741,2.153808288
5.9837105,0.02691678,0.476338745,-2.122768785,2.175722967
5.9937065,0.950210039,0.41055523,-1.862141134,2.130498608
6.0037015,1.925713378,0.344526717,-1.694059704,2.587838665
6.0136965,2.847587298,0.41381096,-2.048384016,3.532119761
6.0236925,3.421117585,0.454986468,-2.723355601,4.396330737
6.0336875,4.040913089,0.465520812,-3.298443586,5.236928327
6.0436825,4.916118481,0.429998392,-2.902543817,5.725196952
6.0536785,5.424119899,0.138558546,-1.441212651,5.614033225
6.0636735,5.47525263,-0.316923766,-0.262612488,5.49070099
6.0736685,4.940867406,-0.795762781,-0.970017409,5.097680148
6.0836645,3.769054983,-1.323009725,-2.811521965,4.884750347
6.0936595,3.034455832,-1.769466274,-3.878066964,5.23243122
6.1036545,2.855289251,-2.385735907,-3.993419665,5.458187716
6.1136495,3.233627785,-3.091483727,-2.723780108,5.237613804
6.1236455,3.480153413,-3.600555185,-1.208786121,5.151371595
6.1336405,3.441092259,-3.812265907,-1.256169033,5.287007463
6.1436355,3.534881598,-3.410928227,-2.613405142,5.564144653
6.1536315,4.071143486,-2.942969127,-3.586938774,6.172633663
6.1636265,4.946785372,-2.465104843,-3.271193807,6.422471201
6.1736215,5.580068064,-1.914947923,-2.357985021,6.353288795
6.1836175,5.772485313,-1.294001103,-2.114076753,6.28214502
6.1936125,4.992942123,-1.036675082,-2.346608094,5.613442422
6.2036075,2.857222925,-1.546042995,-2.580790835,4.149030383
6.2136035,0.564995252,-2.387468437,-2.911310547,3.807223959
6.2235985,-1.145235658,-3.600290891,-2.715599561,4.652756193
6.2335935,-2.355387834,-4.886045081,-1.56511018,5.645428085
6.2435895,-3.512921795,-5.984384315,0.22799752,6.943015054
6.2535845,-4.254948079,-6.867440178,1.731143038,8.262153108
6.2635795,-4.199057176,-7.59084425,2.369923282,8.992748966
6.2735755,-3.861500047,-7.078391347,3.068836291,8.627430838
6.2835705,-3.065263057,-4.861050573,4.351801944,7.208594207
6.2935655,-2.083604427,-2.991341388,4.609208071,5.876591678
6.3035605,-1.816604773,-1.895084932,5.062129887,5.702329243
6.3135565,-2.187578154,-1.051904156,5.020566709,5.576566203
6.3235515,-1.837596277,-1.173229203,1.457825468,2.622686015
6.3335465,-1.667829387,-1.740748259,-2.246310658,3.295113191
6.3435425,-0.014633534,-1.313041391,-1.889465758,2.300950387
6.3535375,1.446825978,-1.325301833,0.564212895,2.041584323
6.3635325,1.608128731,-1.65160161,3.206804268,3.949361911
6.3735285,0.798837832,-1.377246743,4.757419785,5.016771221
6.3835235,-0.677088569,-0.883130708,3.548409716,3.718814366
6.3935185,-1.813827345,-0.175822851,2.84999372,3.382801726
6.4035145,-2.542426376,0.991885995,3.876703685,4.740949395
6.4135095,-3.228088133,2.180814387,4.635019435,6.054742732
6.4235045,-3.77840702,2.996320292,4.824378883,6.821211513
6.4335005,-4.630139641,3.379514061,5.117621718,7.684358167
6.4434955,-5.111855779,3.422954196,5.358118283,8.158254498
6.4534905,-5.008516767,3.218187627,5.463108548,8.080069728
6.4634855,-4.683320945,2.953038617,5.723709594,7.963339982
6.4734815,-4.492736798,3.31917138,6.088848331,8.262908482
6.4834765,-4.786879227,3.811299362,6.433907729,8.878929228
6.4934715,-5.13587731,4.188036636,6.341232285,9.172137891
6.5034675,-5.115216758,4.483644962,5.987883289,9.062188528
6.5134625,-4.845378281,4.852726477,5.3472448,8.695957216
6.5234575,-4.480810525,5.231463498,4.624890888,8.296715556
6.5334535,-3.683208794,5.54359781,3.725724192,7.627484805
6.5434485,-2.725418206,5.176189184,2.491075251,6.358167564
6.5534435,-1.968768912,4.460204059,0.982883914,4.973482891
6.5634395,-1.344921581,3.628984348,-0.308340346,3.882449642
6.5734345,-0.815756458,2.547031351,-1.49402441,3.06348433
6.5834295,-0.225035065,1.237601784,-2.920239538,3.179638016
6.5934255,0.314094006,-0.19440998,-3.899562205,3.917018723
6.6034205,0.813521652,-1.043133332,-4.241249807,4.442763166
6.6134155,0.655867269,-1.972745311,-4.018365348,4.524284033
6.6234105,0.810215636,-2.217148985,-4.724620706,5.28149977
6.6334065,1.466104248,-2.898222139,-5.663333584,6.528591006
6.6434015,3.367686606,-4.054268714,-6.886275229,8.671746907
6.6533965,5.581048057,-5.584081593,-6.271767948,10.08291316
6.6633925,7.150122065,-6.982545542,-4.512880748,10.9656865
6.6733875,7.330502821,-6.893478414,-4.050205192,10.84714148
6.683382708,6.164666837,-4.245773213,-5.206232178,9.117815576
6.693378708,2.985650293,-0.046826842,-4.362019368,5.286162445
6.703373708,-0.114746345,3.936760145,-3.100427335,5.01237437
6.713368708,-1.917070755,5.67645649,-1.051047246,6.082928479
6.723364708,-2.678118032,5.437672575,1.70243818,6.29594274
6.733359708,-3.384180724,4.527517791,4.552324018,7.257737284
6.743354708,-4.417421737,3.234725307,5.277161243,7.604307555
6.753349708,-5.076470184,0.877733143,3.421890002,6.184682384
6.763345708,-4.306467896,-3.426895804,2.180158914,5.919659913
6.773340708,-2.770381832,-10.02820873,1.317034016,10.48687582
6.783335708,0.935449839,-13.86623923,-0.687338738,13.91474366
6.793331708,3.868707033,-14.47780185,-3.612874099,15.41513866
6.803326708,4.135482739,-11.48893676,-3.741635635,12.77097187
6.813321708,2.570522832,-5.603065163,-2.426190015,6.6248264
6.823317708,-0.440822757,0.782191978,0.143428984,0.909241919
6.833312708,-3.04863036,3.975406732,1.943513765,5.373569718
6.843307708,-5.413319507,4.692401086,3.416776028,7.937065859
6.853302708,-6.429455075,5.391005947,4.590033882,9.563955704
6.863298708,-6.359275623,6.590480377,3.815394752,9.921293019
6.873293708,-6.55583504,6.855562729,3.063593677,9.968115149
6.883288708,-6.097078287,5.694629636,3.605189688,9.088485189
6.893284708,-4.883637198,3.500506986,4.302502899,7.39019571
6.903279708,-3.399080599,0.689855672,5.473735278,6.480079294
6.913274708,-1.325106829,-1.918249846,7.269178977,7.633908146
6.923270708,1.442431064,-2.967876511,7.7530618,8.426082461
6.933265708,3.474072894,-3.043986209,7.187507408,8.543728533
6.943260708,4.527737354,-2.383564251,5.982300367,7.872083699
6.953256708,5.17175641,-0.932263107,3.611756111,6.376594787
6.963251708,4.233886408,0.370698854,-0.711366994,4.309205815
6.973246708,1.008001214,0.426518129,-5.082931357,5.199439907
6.983241708,-2.849786144,-0.54851853,-6.358896139,6.989829307
6.993237708,-4.163428629,-0.37824761,-4.759375094,6.334734445
7.003232708,-3.219431915,0.013842698,-1.683596404,3.633102025
7.013227708,-2.059703933,-0.212778423,1.597897857,2.615517637
7.023223708,-1.167124417,-0.332842226,2.832263208,3.081343576
7.033218708,-0.405559077,-0.083382465,1.813788169,1.860445732
7.043213708,-0.058905435,0.254262664,0.703617094,0.750464102
7.053209708,-0.274839162,0.383237039,-0.172275272,0.502081629
7.063204708,-0.86695497,0.214660057,-1.472041218,1.721799991
7.073199708,-0.42963835,0.690377828,-2.441889642,2.573720203
7.083194708,0.07788579,1.032589633,-1.796864573,2.073892437
7.093190708,0.840710181,1.205771881,-0.410233707,1.526096698
7.103185708,1.754835371,1.357614716,0.812309743,2.362712851
7.113180708,2.411011666,1.530149093,1.366052102,3.16550657
7.123176708,2.593274348,1.691180828,1.235887966,3.333554184
7.133171708,2.456809106,1.838013768,0.755139835,3.159816729
7.143166708,1.930192638,1.667839912,0.213868929,2.559897168
7.153162708,1.236633924,1.343817626,-0.730971685,1.967086393
7.163157708,0.722246616,1.149191884,-1.374869411,1.931980346
7.173152708,0.258852582,0.973893528,-2.039550481,2.274915257
7.183147708,-0.121743123,0.559796054,-2.811023197,2.8688054
7.193143708,-0.106603658,0.049017794,-3.150890268,3.153074145
7.203138708,0.406214038,-0.214262447,-2.939235095,2.974898516
7.213133708,1.303336768,-0.187356484,-2.588443963,2.904105944
7.223129708,2.307893387,-0.161760297,-2.301264398,3.2631819
7.233124708,3.12810016,0.098004597,-2.44874521,3.973785175
7.243119708,3.757366984,0.377761121,-2.745182964,4.668676432
7.253115708,4.55462139,0.587320653,-2.69542579,5.324926454
7.263110708,4.97641146,0.546387219,-2.271355744,5.497478234
7.273105708,4.97529815,0.308446473,-1.179903361,5.122587515
7.283100708,4.87218221,-0.305591277,-0.342234316,4.893737819
7.293096708,4.576322453,-1.038030467,-0.951899372,4.788146496
7.303091708,3.889316129,-1.423008222,-2.524638269,4.850312438
7.313086708,3.440572441,-1.608121714,-3.389810423,5.090619695
7.323082708,3.235694483,-1.937104778,-3.534913465,5.168917383
7.333077708,3.20248376,-2.306552328,-3.118847526,5.030238142
7.343072708,3.2235428,-2.67655127,-2.183658619,4.724777227
7.353068708,3.196640053,-2.939959565,-2.011341905,4.786164031
7.363063708,3.527311208,-2.889185268,-3.574906958,5.793899863
7.373058708,4.175513947,-2.703931442,-4.877808108,6.967006093
7.383053708,5.055998497,-1.94609955,-4.339146815,6.941082001
7.393049708,5.899468126,-0.568831757,-2.792616747,6.551793802
7.403044708,6.400099128,0.154895666,-2.48169047,6.866152424
7.413039708,5.264624228,0.061113929,-2.718399793,5.925343923
7.423035708,3.500176034,-0.408642021,-2.364408188,4.243659582
7.433030708,1.302626623,-1.336313894,-1.35361756,2.305396157
7.443025708,-1.024197417,-2.520773259,0.132013757,2.724097246
7.453021708,-3.12258916,-3.573791894,1.024114094,4.855034628
7.463016708,-4.236848023,-5.280360839,1.898326628,7.031126208
7.473011708,-5.096193427,-7.774319353,3.182521366,9.82546035
7.483006708,-5.535255003,-9.747364626,4.713391421,12.16002565
7.493002708,-5.243605826,-10.02878644,5.159854403,12.43768696
7.502997708,-4.425950778,-8.303760756,4.440205997,10.4046582
7.512992708,-3.622363253,-5.514096268,3.203460245,7.334093723
7.522988708,-3.048013771,-2.756533579,2.254518248,4.687399903
7.532983708,-2.415649678,-1.099915643,2.227032826,3.464802014
7.542978708,-1.452099874,-0.805926996,1.111841332,1.998575371
7.552973708,1.108154078,-0.695963674,-1.41946057,1.930605917
7.562969708,2.769955278,-0.380871255,-0.023664705,2.796117876
7.572964708,2.986318629,-0.900616806,2.718852367,4.137797456
7.582959708,2.378486529,-1.420679861,2.118017922,3.487338434
7.592955708,0.912606522,-1.432723956,2.015118621,2.635574255
7.602950708,-0.32714236,-0.783719856,3.255024501,3.363989215
7.612945708,-0.772864207,0.262969168,3.060144697,3.167168678
7.622941708,-1.940633865,1.205264928,3.044915624,3.806604064
7.632936708,-2.927725143,2.238227613,4.179731251,5.572377472
7.642931708,-3.755966283,2.888057925,5.271730934,7.087969267
7.652926708,-4.606006428,3.254282489,5.882042838,8.148869719
7.662922708,-5.23781299,3.675489008,5.796548359,8.633879617
7.672917708,-5.489034517,3.919661717,5.64393837,8.794730708
7.682912583,-5.597684555,3.753400233,5.65326117,8.796672527
7.692908583,-5.565935928,3.795796639,5.704777479,8.827921668
7.702903583,-5.342788053,3.977367303,6.09105507,9.025839945
7.712898583,-5.30761822,4.070035731,5.99092501,8.97926414
7.722893583,-5.317539775,4.198557531,5.718113809,8.865717125
7.732889583,-5.006512341,4.377641959,5.456504703,8.602462352
7.742884583,-4.789876218,4.238328538,4.575635698,7.864018376
7.752879583,-4.516305755,4.150529671,3.330592747,6.979739413
7.762875583,-3.84181832,4.049990891,1.96821138,5.919108907
7.772870583,-3.245042135,3.573743947,0.79097625,4.891583351
7.782865583,-2.495848918,2.717402843,-0.264664569,3.699133326
7.792860583,-2.179863922,1.450821088,-1.304206541,2.92534498
7.802856583,-1.668339557,0.266830085,-2.481593699,3.002142977
7.812851583,-0.565943232,-0.796655066,-3.259240636,3.402587333
7.822846583,0.621203221,-1.702123892,-3.368207885,3.824649466
7.832842583,1.626384907,-2.921435586,-3.774436176,5.042448036
7.842837583,3.098700652,-3.908645563,-5.233732218,7.229896873
7.852832583,4.808511001,-4.382443108,-6.136511909,8.943397792
7.862827583,6.209278754,-4.636716297,-6.029456992,9.818789757
7.872823583,8.510471524,-4.505518227,-5.358727562,11.02015341
7.882818583,9.306585138,-4.263364561,-3.098248663,10.6952302
7.892813583,7.751197123,-3.070996252,-2.2130783,8.626110965
7.902809583,4.476249112,-0.659019211,-3.186360648,5.533896151
7.912804583,0.714019291,1.84833235,-3.186493672,3.752319009
7.922799583,-2.221625614,3.066757021,-1.865665105,4.221531153
7.932794583,-3.75420364,2.709533075,0.213053535,4.634760648
7.942790583,-4.510646527,1.834917668,2.149321868,5.322822506
7.952785583,-5.264607271,0.896141347,2.675278916,5.972962105
7.962780583,-5.711086625,-0.565892946,2.596322794,6.299018758
7.972776583,-5.015329943,-3.377786794,2.1195898,6.407467439
7.982771583,-3.118671525,-7.203931067,-0.009834871,7.850021123
7.992766583,-0.992375115,-10.1292416,-2.313376175,10.43733937
8.002761583,1.688344051,-10.36979138,-3.126182274,10.96157354
8.012757583,2.580268971,-8.63239708,-2.226646618,9.28084169
8.022752583,2.045132087,-5.448634935,-1.003265262,5.9056523
8.032747583,0.237384384,-1.101882062,0.228962932,1.150182354
8.042743583,-2.544595693,2.867388017,1.240042558,4.029216652
8.052738583,-5.805090557,4.28515421,2.547020533,7.651727686
8.062733583,-7.089005213,4.629220167,3.710584581,9.244031166
8.072728583,-6.607248437,5.115466434,3.866180159,9.207121036
8.082724583,-6.183548082,5.24462792,3.135620849,8.693359938
8.092719583,-5.409338722,4.584011834,2.171367041,7.415453104
8.102714583,-4.501661696,2.579660568,1.694266988,5.458035113
8.112710583,-3.182200354,-0.27349708,2.46839624,4.036604977
8.122705583,-1.044999763,-2.385024301,4.199290187,4.941093351
8.132700583,1.735904426,-3.51824393,5.451024692,6.716031173
8.142696583,4.800495931,-3.059988284,5.499259543,7.915184458
8.152691583,6.713702846,-1.786875774,4.278657954,8.159267419
8.162686583,7.27644999,-0.126885749,2.380323139,7.656942124
8.172681583,6.303038857,1.385950323,1.079192526,6.543226547
8.182677583,3.18444013,0.983018693,-0.449537448,3.362895866
8.192672583,-0.139736467,0.245598845,-1.382993971,1.411565584
8.202667583,-1.747530737,0.042970018,-1.070829839,2.049972352
8.212662583,-2.217135683,-0.202291442,-0.257763392,2.241217176
8.222658583,-2.102344753,-0.221960306,0.38251838,2.148357547
8.232653583,-1.574925317,-0.162726257,0.554927663,1.677740832
8.242648583,-1.102441348,-0.42979257,0.107177124,1.188101643
8.252644583,-0.71157267,-0.394623907,-0.429992472,0.920302786
8.262639583,-0.420281489,0.011314362,-0.616614034,0.746309193
8.272634583,-0.498699521,0.473293515,-0.237374736,0.727361485
8.282629583,-0.756016771,0.866319963,-0.377533153,1.210207799
8.292625583,-0.984864951,1.20873642,-1.147379905,1.935841768
8.302620583,-1.252360595,1.157178011,-1.724814012,2.425376545
8.312615583,-1.250659202,1.187515705,-1.173453297,2.08598529
8.322611583,-0.946019266,1.355524921,0.109756185,1.656637161
8.332606583,-0.269986266,1.526411553,0.925001303,1.805118341
8.342601583,0.365829732,1.612478474,1.090385193,1.980620633
8.352596583,0.581549012,1.68144229,0.80784481,1.95398584
8.362592583,0.535847028,1.782252966,0.269512641,1.880477263
8.372587583,0.320802224,1.70553925,-0.219119729,1.749226017
8.382582583,0.12991373,1.514967967,-0.848495311,1.741249497
8.392578583,0.100974398,1.324470944,-1.028997104,1.680254192
8.402573583,0.278064194,1.235030764,-1.054263653,1.647450313
8.412568583,0.517082729,0.991332264,-1.260177153,1.684684143
8.422563583,0.471930018,0.754681413,-1.630120693,1.85729789
8.432559583,0.83447303,0.717831091,-2.076524618,2.350230032
8.442554583,1.320540884,0.399162515,-2.204513737,2.600584503
8.452549583,2.198922045,-0.009835601,-1.999966585,2.972410005
8.462544583,3.28259003,-0.361411722,-1.849353858,3.784986847
8.472540583,4.079544181,-0.307824329,-2.012352742,4.559276269
8.482535583,4.491227632,-0.16254207,-2.506966814,5.14610806
8.492530583,4.702102494,-0.334592298,-2.840969127,5.503891846
8.502526583,4.756571939,-0.586723652,-2.543853389,5.42590189
8.512521583,4.355928909,-0.793416878,-1.880930869,4.810564201
8.522516583,3.798334331,-1.075634496,-1.583846998,4.253575504
8.532511583,3.229133615,-1.411179889,-1.970276617,4.037415328
8.542507583,2.800737068,-1.925116816,-2.674002469,4.324406559
8.552502583,2.696414847,-2.365541378,-2.878283134,4.599016508
8.562497583,2.787149016,-2.575340645,-2.651818718,4.629548745
8.572493583,3.011922417,-2.62526885,-2.502473813,4.714455257
8.582488583,2.826283845,-2.74199974,-2.386788406,4.604693458
8.592483583,2.863414542,-2.796698104,-2.817083836,4.894550486
8.602478583,3.265328465,-2.697022372,-3.350621215,5.400274269
8.612474583,4.006087657,-2.505419641,-3.139150229,5.672753304
8.622469583,4.823494492,-1.923794761,-2.67411649,5.841060211
8.632464583,5.358256277,-1.203692027,-2.522568355,6.043437426
8.642459583,5.361993232,-1.216317919,-3.10473878,6.314254001
8.652455583,4.693469665,-1.24626385,-3.634242164,6.065438746
8.662450583,3.115193894,-1.164546672,-3.43218461,4.779172852
8.672445583,1.185391704,-1.420140747,-2.607861689,3.197326356
8.682441875,-0.647655001,-2.539773202,-1.257012202,2.906885721
8.692436875,-2.154329862,-3.88270439,-0.492173078,4.467523349
8.702431875,-3.706448845,-4.828942927,0.664255393,6.123535585
8.712426875,-4.237967765,-5.749675909,2.153651147,7.460385855
8.722422875,-3.995471452,-6.824826255,3.952610192,8.841106994
8.732417875,-3.62722492,-6.662528014,5.28779265,9.246988227
8.742412875,-2.787851851,-5.174178327,5.482461662,8.037513619
8.752408875,-2.019229068,-2.297804309,6.583686497,7.259622481
8.762403875,-1.926034975,-0.40447588,6.188847413,6.494231576
8.772398875,-0.454889404,0.054246374,0.425085561,0.624951817
8.782393875,-0.350776806,-0.780338995,-3.170191927,3.28360932
8.792389875,-0.550834319,-0.93834655,-2.25131719,2.500468313
8.802384875,0.245566978,-0.718839151,-0.02291173,0.759972244
8.812379875,1.316556445,-1.446825686,1.961983072,2.770560054
8.822374875,1.531648612,-1.870742973,2.720493388,3.63960314
8.832370875,0.975594191,-1.503057774,2.873831649,3.386720396
8.842365875,0.565593276,-0.522872057,3.936706643,4.011352656
8.852360875,0.108334873,0.78942206,4.054010267,4.131576319
8.862356875,-1.365736206,1.740122607,3.324232438,3.992966739
8.872351875,-2.865374528,2.367324779,3.762822728,5.288991651
8.882346875,-3.971482081,2.850114757,5.132213445,7.087696304
8.892341875,-4.800388927,3.126964046,5.38798586,7.864606133
8.902337875,-5.383247861,3.014149037,5.516733363,8.27640012
8.912332875,-5.333410873,3.138443885,5.913471622,8.559453732
8.922327875,-5.264231295,3.147818141,5.934934412,8.534889376
8.932322875,-5.120954046,3.351659095,5.927863959,8.52040845
8.942318875,-4.945353974,3.60274029,5.523961691,8.243204249
8.952313875,-4.867039584,3.573521168,5.063585844,7.880230292
8.962308875,-4.826216955,3.54982825,4.563671125,7.531317603
8.972303875,-4.740373105,3.641413774,3.835965549,7.102511045
8.982299875,-4.508401781,3.781404303,3.061879274,6.633235244
8.992294875,-4.09288051,3.760400519,2.005990241,5.908999897
9.002289875,-3.490527836,3.686064867,0.710986048,5.126047204
9.012285875,-2.968703308,3.377182776,-0.50241148,4.524486725
9.022280875,-2.462890502,2.94502033,-1.365266383,4.074668903
9.032275875,-1.863017632,2.361413829,-1.878193788,3.546085429
9.042270875,-1.227284665,1.172892988,-2.267743042,2.832766159
9.052266875,-0.247827219,0.08742523,-3.150454066,3.161395629
9.062261875,0.607952553,-1.527323719,-4.206898584,4.516671313
9.072256875,1.501465577,-2.850022371,-5.914973187,6.735275362
9.082251875,3.100676719,-3.357617408,-7.581285807,8.852326545
9.092247875,5.10720198,-4.102329903,-7.84886609,10.22337134
9.102242875,8.280686474,-4.465627352,-5.913125467,11.11200472
9.112237875,10.59593361,-4.248700329,-2.48618464,11.68359438
9.122233875,10.37957962,-4.262536595,-2.65950079,11.53160161
9.132228875,7.495165676,-3.480490798,-4.775776534,9.544598798
9.142223875,3.499394846,-1.282347018,-4.70087107,5.999030503
9.152218875,-0.004443884,0.985466337,-3.285375059,3.429993138
9.162214875,-1.402892923,2.140861532,-1.109897133,2.789850946
9.172209875,-2.048108612,1.417421207,1.545520985,2.931290992
9.182204875,-2.939788534,0.013897077,4.762191113,5.59651802
9.192199875,-3.511347724,-1.550359994,6.294090278,7.372160564
9.202195875,-3.456453187,-4.795841839,4.297805246,7.308782218
9.212190875,-2.692235257,-7.936232262,2.187555788,8.661253577
9.222185875,-1.465174833,-9.024366935,0.001930751,9.142534638
9.232180875,-0.144879971,-7.824360409,-2.639762928,8.258931791
9.242176875,1.191706696,-4.676393749,-2.351570041,5.368305599
9.252171875,0.344192549,-0.669769317,0.034457788,0.753821456
9.262166875,-2.61500611,2.460404851,1.688436291,3.967702873
9.272161875,-4.852991063,4.007659389,2.324812159,6.709516198
9.282157875,-5.331360839,5.033815915,2.01991363,7.605442928
9.292152875,-6.155314801,5.013028479,1.587533083,8.095592388
9.302147875,-6.925922275,4.43810977,1.276647152,8.324364579
9.312143875,-6.420972519,3.878104386,2.447499461,7.890426815
9.322138875,-5.107884935,2.170944287,2.515366924,6.093484911
9.332133875,-3.613309717,-0.587870291,2.582067282,4.47980692
9.342128875,-1.554668807,-2.505369354,4.215829622,5.144617585
9.352124875,1.560856185,-2.922462941,6.239342798,7.064450455
9.362119875,5.229646769,-2.391498923,7.325121628,9.312673047
9.372114875,7.208838635,-1.407904864,7.083356802,10.20409203
9.382109875,6.882573942,-0.136029625,5.892108235,9.061195704
9.392105875,4.371263816,0.56591692,3.122488003,5.401679428
9.402100875,1.272808455,0.425938085,-0.44252956,1.413257594
9.412095875,-0.817202474,0.235263306,-3.212907591,3.323543876
9.422090875,-2.110242734,-0.201839452,-4.234693909,4.735662156
9.432086875,-2.378059975,-0.413291727,-3.750250922,4.459861127
9.442081875,-2.143385921,-0.517776209,-2.121273944,3.059738315
9.452076875,-1.648587078,-0.478498707,-0.999472831,1.98639027
9.462072875,-0.832697888,0.23818633,-0.539140253,1.020191508
9.472067875,-0.379314434,0.781937039,-0.505884799,1.005596541
9.482062875,-0.259841785,1.286131335,-0.592574376,1.439720791
9.492057875,-0.333711122,1.457289278,-0.448032374,1.560701176
9.502053875,-0.33840629,1.472937012,0.031626347,1.511642313
9.512048875,-0.286018015,1.569711354,1.026305557,1.897130237
9.522043875,-0.274096274,1.692506391,0.964082996,1.967018728
9.532038875,0.061288029,1.709331754,0.299791351,1.736503995
9.542034875,0.587792377,1.476096262,-0.359969214,1.629091123
9.552029875,1.110170783,1.395976544,-0.197083912,1.794455836
9.562024875,1.289695213,1.400214021,-0.517925313,1.972855716
9.572019875,1.157620499,1.44765716,-0.804531265,2.020660048
9.582015875,0.875209412,1.535119811,-1.04029407,2.050559948
9.592010875,0.588582116,1.597665138,-1.241143882,2.106988594
9.602005875,0.376923508,1.604958955,-1.464726351,2.205309018
9.612000875,0.411112909,1.332599743,-2.159926963,2.571015439
9.621996875,0.726932355,0.768939264,-2.860308208,3.049764136
9.631991875,1.19624801,0.272252793,-3.193582544,3.421125597
9.641986875,2.054973243,0.097795267,-3.20399585,3.807632907
9.651981875,3.219650601,0.078308836,-3.038098648,4.427451373
9.661977875,4.310941308,-0.018161452,-2.610328045,5.039678294
9.671972875,5.236853462,-0.291217067,-2.082183261,5.643131107
9.681967583,5.908069965,-0.432210978,-1.152631216,6.034952838
9.691962583,6.076915333,-0.333883615,-0.204226578,6.08950628
9.701958583,5.324765764,-0.50697874,-0.241294125,5.354286203
9.711953583,4.210254594,-1.133633612,-1.576545872,4.636471266
9.721948583,3.626871749,-1.717861673,-3.041787071,5.035644546
9.731944583,3.676167285,-2.065119039,-4.030239874,5.832817158
9.741939583,3.825162233,-2.318426853,-4.073478572,6.049809655
9.751934583,3.860849837,-2.728210836,-3.41993177,5.834828973
9.761929583,4.081591876,-3.088863004,-2.528944451,5.709293033
9.771925583,4.161883502,-3.118411909,-2.202645698,5.647779669
9.781920583,4.48543041,-2.746768729,-3.112413835,6.111541891
9.791915583,5.142524425,-1.832352494,-3.386035461,6.424041505
9.801910583,5.923831134,-0.868166513,-3.072324447,6.729388227
9.811906583,6.652984774,-0.46384383,-3.265017393,7.425476151
9.821901583,6.002793689,-0.75534975,-3.174588448,6.832429812
9.831896583,4.160481048,-1.410651301,-3.373703098,5.53908045
9.841891583,1.492675604,-2.597385233,-3.004922715,4.243118079
9.851887583,-1.175874775,-4.0201315,-1.783893694,4.552627316
9.861882583,-3.784973736,-5.08957204,0.081058781,6.34321214
9.871877583,-5.293283186,-6.954528608,2.390210781,9.060762806
9.881872583,-6.370471287,-9.65819985,4.560351076,12.43625871
9.891868583,-6.463547266,-11.38928851,5.690633065,14.27853776
9.901863583,-5.314574652,-10.38004272,5.757471417,13.00532459
9.911858583,-3.498074545,-7.266310333,5.74127346,9.899394543
9.921853583,-2.377291943,-3.946268887,5.237151085,6.975120544
9.931849583,-2.029535516,-1.722285676,3.666788936,4.531073102
9.941844583,-1.289891095,-1.409800531,-1.620665746,2.505576587
9.951839583,-0.408920349,-1.333262817,-4.438307991,4.652244987
9.961834583,0.975746218,-0.834443282,-1.131235377,1.711160352
9.971830583,3.084160089,-0.680860316,2.34188676,3.931926731
9.981825583,3.00882427,-1.420595661,3.049003705,4.513041005
9.991820583,2.717318643,-1.379444126,2.514921951,3.951141496
10.00181558,1.769587312,-0.129269659,3.376175301,3.814014888
10.01181158,1.15192955,1.432041585,4.093548847,4.487184747
10.02180658,-0.617563621,2.033795505,3.839357811,4.388436782
10.03180158,-2.510507595,3.03855473,4.643019303,6.090409796
10.04179658,-3.912348897,3.919022616,6.071831764,8.217807075
10.05179258,-5.527405701,4.282648094,7.051538594,9.930633666
10.06178758,-6.358081037,4.179114954,7.38714129,10.60471842
10.07178258,-6.205282767,4.00231328,7.866314766,10.78902006
10.08177758,-6.01786898,3.884321145,7.816371943,10.60180966
10.09177358,-5.855292996,3.609989083,7.716483373,10.33733974
10.10176858,-5.65725248,3.25667634,7.393435818,9.862724755
10.11176358,-5.571506571,3.041205273,6.94142032,9.40605821
10.12175858,-5.396590623,3.050715185,6.292943639,8.833526653
10.13175458,-5.238665514,3.317990243,5.238639786,8.117636505
10.14174958,-4.905623313,3.41839863,3.678940619,7.020341399
10.15174458,-4.069084097,3.5257845,2.149798124,5.797433372
10.16173958,-3.200088741,3.491038005,0.637580395,4.778537754
10.17173558,-2.513570659,3.268629802,-0.740269196,4.189269235
10.18173058,-2.036482593,2.782000542,-1.883946278,3.92887286
10.19172558,-1.604100291,2.002125816,-2.597586085,3.65090386
10.20172058,-0.870660351,0.889813491,-3.207178197,3.440321131
10.21171658,-0.124253917,0.036785418,-3.608402441,3.610728511
10.22171158,0.079768593,-1.078877361,-3.959054993,4.10419978
10.23170658,0.950148862,-1.528778506,-5.354143345,5.648610231
10.24170158,2.054328588,-2.044929188,-6.796279564,7.388600493
10.25169758,4.077000934,-2.531312281,-8.062060835,9.38223339
10.26169258,6.153920825,-3.386196844,-7.134411181,10.01183767
10.27168758,7.962531284,-3.906448764,-3.694969007,9.608071729
10.28168258,8.282497941,-4.525926763,-1.203353181,9.514822336
10.29167858,6.822526546,-4.392457634,-2.967583273,8.639855497
10.30167358,4.444046448,-2.365035594,-4.491201611,6.746394156
10.31166858,1.091273166,-0.043355935,-3.348443127,3.522048869
10.32166358,-1.784230494,1.569978572,-2.181896707,3.226295772
10.33165958,-2.853789148,1.890209523,-0.228643966,3.430638804
10.34165458,-3.645686334,1.250241711,1.711208711,4.216914563
10.35164958,-4.400703378,0.00667869,2.493474948,5.058028484
10.36164458,-4.688887787,-2.451882534,2.926253107,6.046515846
10.37164058,-3.762595856,-5.633944893,2.062876925,7.081943508
10.38163558,-2.019217227,-9.506430105,0.228175019,9.721188991
10.39163058,0.412571643,-11.92050922,-1.528726612,12.02521353
10.40162558,2.426070001,-11.44405236,-2.419051588,11.9458763
10.41162158,2.445966029,-7.468801165,-1.242830219,7.956781234
10.42161658,1.337660216,-0.76186998,0.593621174,1.649899032
10.43161158,-1.178081222,3.402930406,1.898754644,4.071004779
10.44160658,-4.340065705,4.703558743,4.246155621,7.68046045
10.45160258,-5.631256928,5.909179766,5.43590964,9.807067539
10.46159758,-6.472970638,6.405438806,4.66729665,10.23292007
10.47159258,-8.041814851,5.986922007,3.683355267,10.68087671
10.48158758,-7.890957856,5.603870909,3.369628758,10.24816974
10.49158358,-6.387156317,4.232491847,4.104990971,8.692566015
10.50157858,-5.019352827,0.791107813,4.04545696,6.495034749
10.51157358,-3.000436732,-2.041486348,5.456903483,6.553478672
10.52156858,0.084355588,-3.0003461,6.804211897,7.436833474
10.53156458,3.023221577,-3.094304423,6.344978596,7.679410261
10.54155958,5.240712039,-2.587059635,5.398375193,7.956154533
10.55155458,6.447500167,-1.17270997,4.099579958,7.729945854
10.56154958,4.96837797,-0.049690223,1.391526228,5.159805618
10.57154558,1.575081291,0.016037743,-1.798026999,2.390405692
10.58154058,-1.502885281,-0.549323106,-4.36267835,4.646868023
10.59153558,-3.439158584,-0.600804917,-4.163819808,5.433799197
10.60153058,-3.839645494,-0.467448054,-2.080267421,4.391912766
10.61152658,-3.025738803,-0.654153158,-0.206096847,3.102496989
10.62152158,-1.932766436,-0.448421799,0.883158774,2.171782132
10.63151658,-0.963310945,-0.008196627,0.971679772,1.368282405
10.64151158,-0.134150476,0.70919183,0.673764792,0.987374497
10.65150758,0.549167132,1.231887301,0.08223356,1.351256163
10.66150258,0.764105224,1.436038157,-0.741033427,1.787510258
10.67149758,0.7857025,1.38364769,-1.268539402,2.034945101
10.68149283,0.76565459,0.908066744,-1.414671262,1.84718893
10.69148883,1.040438204,0.791340532,-0.87532007,1.573186804
10.70148383,1.454784623,0.989779828,0.017085564,1.759646079
10.71147883,1.63805478,1.230034318,0.685158019,2.160011435
10.72147383,1.745834606,1.453511392,0.67832489,2.370813889
10.73146983,1.666066598,1.616646954,0.652050938,2.411326546
10.74146483,1.564856411,1.597893764,0.37003388,2.26692857
10.75145983,1.351161291,1.40579285,0.138745072,1.954773789
10.76145483,1.027509426,1.076431471,-0.281376057,1.514481039
10.77144983,0.574189853,0.720306217,-0.720765808,1.16963173
10.78144583,0.162166679,0.470775704,-1.326743757,1.417101546
10.79144083,-0.028779118,0.232450796,-2.467269482,2.478362424
10.80143583,-0.102886876,0.078185459,-3.118632349,3.121308444
10.81143083,-0.066728425,0.02089444,-3.504198334,3.504895893
10.82142683,0.826218661,0.179521215,-3.510097297,3.610491404
10.83142183,1.933953128,0.29526451,-2.477330786,3.156663374
10.84141683,2.967834119,0.481041076,-1.620108652,3.41528797
10.85141183,3.900441334,0.693873294,-1.343256878,4.183209508
10.86140783,4.600785449,0.743195143,-1.533553927,4.906256559
10.87140283,5.120598536,0.510298789,-1.79997763,5.451683564
10.88139783,5.218555185,0.097422799,-1.598549237,5.458769924
10.89139283,4.829065134,-0.633248777,-1.15600389,5.005718637
10.90138883,4.085632594,-1.442926177,-1.271942482,4.515779814
10.91138383,3.211075659,-1.912738261,-2.430258653,4.458220684
10.92137883,2.722491674,-2.180085239,-3.477864228,4.92547177
10.93137383,2.570982715,-2.214307238,-3.811405782,5.102932755
10.94136983,2.451390783,-2.114511055,-3.992204321,5.139860807
10.95136483,2.38138704,-1.98715519,-4.072085473,5.118756693
10.96135983,2.141027885,-1.926276319,-3.766918411,4.741752332
10.97135483,2.234644878,-2.135337083,-3.382282718,4.58182699
10.98134983,3.05257343,-2.19599259,-3.855450518,5.385637074
10.99134583,4.024558134,-1.837894485,-4.842318433,6.559189898
11.00134083,5.073196912,-0.92387703,-5.156971141,7.292820238
11.01133583,6.071040051,-0.207834018,-4.476789687,7.546016709
11.02133083,6.781798934,0.664645402,-3.502396806,7.66167956
11.03132683,6.71543596,1.008773339,-2.946144165,7.402328635
11.04132183,5.908172876,0.405700872,-2.648228527,6.487234716
11.05131683,3.880366673,-0.47271698,-1.206468943,4.090999166
11.06131183,1.070307828,-1.725166014,0.093596966,2.032367343
11.07130783,-1.578900546,-3.630822712,0.551879509,3.997545684
11.08130283,-3.876299643,-6.176123872,0.671457993,7.322640291
11.09129783,-5.518069451,-9.182120721,2.447070276,10.98856607
11.10129283,-6.204501579,-11.68334148,4.999616135,14.14186937
11.11128883,-5.934368402,-12.54890364,5.620529627,14.97604968
11.12128383,-5.209678527,-10.46847133,5.325356333,12.84869886
11.13127883,-3.181792803,-6.480500098,4.995608454,8.779338858
11.14127383,-3.296347066,-3.54722507,4.633498574,6.702090623
11.15126883,-3.826475518,-1.866567476,3.870192811,5.75364071
11.16126483,-2.71528235,-0.907745147,-0.143567709,2.866595747
11.17125983,-0.976951914,0.047810928,-3.691997452,3.81936724
11.18125483,0.129588625,-0.517238265,-3.767937288,3.805480264
11.19124983,2.086125454,-1.554792184,-1.424489029,2.96622102
11.20124583,2.137928569,-2.134778089,1.797593136,3.515587737
11.21124083,2.540975974,-0.841182198,2.988991392,4.012258208
11.22123583,2.698614862,-0.159210327,2.62578896,3.768638715
11.23123083,1.321081021,0.464141454,3.256473149,3.544756652
11.24122683,-0.621269002,2.200407237,4.40092411,4.959425391
11.25122183,-2.167027822,3.016083881,5.289898818,6.463420229
11.26121683,-3.492012444,3.560979475,6.190346639,7.949535662
11.27121183,-4.841807679,4.142635345,7.080744851,9.525832082
11.28120783,-5.390581439,4.310137609,7.294214416,10.04197283
11.29120283,-5.119095801,4.229820839,7.531499104,10.04091654
11.30119783,-4.90814931,4.077676288,7.601793162,9.924950017
11.31119283,-4.715825617,3.71546993,7.391925482,9.522829956
11.32118783,-4.4604245,3.428075772,7.404276556,9.298946259
11.33118383,-4.256037415,3.42627366,7.444961482,9.234752685
11.34117883,-4.344335049,3.687514976,6.709457767,8.802717606
11.35117383,-4.582199782,3.860260438,5.614670717,8.211132245
11.36116883,-4.616437569,3.814827572,4.172310842,7.298806957
11.37116483,-4.087111063,3.890651341,2.647431259,6.233019892
11.38115983,-3.452951289,3.905961691,1.067592235,5.321575191
11.39115483,-2.873637229,3.634514644,-0.543676158,4.665090716
11.40114983,-2.305379669,2.989900049,-1.905369015,4.229031662
11.41114583,-1.492308545,2.107179816,-2.792761466,3.80351261
11.42114083,-0.163163337,0.917428136,-3.596639012,3.715388115
11.43113583,1.400096492,-0.50707405,-4.365168679,4.612167806
11.44113083,2.24197217,-1.538942721,-4.296501317,5.08475245
11.45112583,2.600009171,-2.153726576,-4.932868999,5.977606747
11.46112183,2.912834916,-2.484855568,-6.076949247,7.182508378
11.47111683,3.431736421,-2.456215906,-6.714299262,7.930424075
11.48111183,4.040612542,-2.366182233,-6.438714725,7.961307392
11.49110683,4.892378785,-2.23178632,-4.526323789,7.02878705
11.50110283,5.316475582,-2.45045289,-2.199232824,6.25349958
11.51109783,4.980721443,-2.304738522,-2.633678608,6.087336754
11.52109283,3.626289658,-1.1166188,-3.509709334,5.168643327
11.53108783,1.551541132,0.300216517,-3.350261903,3.704276537
11.54108383,-0.113692092,1.243880525,-1.964886361,2.328291877
11.55107883,-1.232400394,1.118927865,-0.155112598,1.671786534
11.56107383,-1.941524688,0.222404695,1.145608856,2.265259723
11.57106883,-2.635170525,-1.263804327,2.947084397,4.150497743
11.58106383,-2.733816269,-4.124933485,4.051677228,6.395695115
11.59105983,-2.487830046,-9.096799319,3.065580561,9.916594192
11.60105483,-1.591404817,-12.91673911,0.974548416,13.05084147
11.61104983,-0.11002004,-14.10046699,-3.334348998,14.48976042
11.62104483,1.097740771,-11.87244628,-6.208156089,13.44251529
11.63104083,2.061941955,-4.198711313,-4.628998557,6.580912472
11.64103583,-0.301599968,3.190715069,1.294434382,3.456470101
11.65103083,-3.528982634,5.367995399,4.949010823,8.109365028
11.66102583,-5.037971531,6.338177115,5.275783639,9.663722848
11.67102083,-5.934087735,6.733085781,4.449800109,10.01741296
11.68101588,-7.342372084,6.599250616,4.180554539,10.72089421
11.69101087,-7.708800716,6.243020112,4.269348017,10.79945559
11.70100588,-7.160322533,4.972418981,3.933382208,9.563820622
11.71100087,-5.838802094,2.607928932,3.45219963,7.267089203
11.72099688,-4.248889779,-0.725741204,3.775405644,5.730048205
11.73099187,-1.148920134,-3.377791471,5.854068589,6.855626284
11.74098688,2.029800834,-4.07064735,7.177006978,8.497040098
11.75098187,4.398280292,-3.640278829,6.127988423,8.375484559
11.76097788,5.86953389,-2.096899241,4.006820898,7.409657767
11.77097288,5.601919109,-0.216336454,2.233794254,6.034744065
11.78096788,3.451215543,0.461289182,-0.131096914,3.484374095
11.79096288,-0.188711284,0.052025017,-2.25843559,2.266903144
11.80095788,-2.986529129,-0.166582496,-3.554504853,4.645601223
11.81095388,-3.665303451,-0.143522247,-2.699322082,4.554271371
11.82094887,-3.028602769,-0.181798705,-0.664538983,3.105977715
11.83094388,-2.053245976,-0.027135758,0.777234709,2.195597681
11.84093887,-1.182535339,0.263272054,1.527630697,1.949707042
11.85093488,-0.539578137,0.42745076,1.176976756,1.363500276
11.86092987,0.082294444,0.785374033,-0.08992031,0.794776956
11.87092488,0.303754375,1.082598529,-0.95246531,1.473593045
11.88091987,0.111288594,0.961521989,-1.645063838,1.908702365
11.89091488,0.036548314,0.689583192,-2.066437587,2.178766866
11.90091088,0.486667852,0.716188023,-1.465531513,1.702220167
11.91090588,1.328343116,0.920901382,-0.738337788,1.776991131
11.92090088,2.064053238,1.183383477,0.383860425,2.409991919
11.93089588,2.344184277,1.582530205,1.088699441,3.030654756
11.94089188,2.226829782,1.898524264,0.612848865,2.98977407
11.95088687,1.933438281,1.919096523,-0.173355326,2.729682604
11.96088188,1.638826467,1.979547377,-0.039307907,2.570195541
11.97087687,1.312308151,1.714136412,-0.018174316,2.158876241
11.98087188,1.001439542,1.317703961,-0.316134831,1.684982527
11.99086787,0.753841461,0.761181178,-0.786760554,1.329159848
12.00086288,0.475081375,0.303713152,-1.573537334,1.6715154
12.01085787,0.369142252,0.229099172,-2.49480519,2.532351747
12.02085288,0.539614755,0.075420311,-2.988263998,3.03753091
12.03084888,1.049948847,-0.148602308,-3.028048453,3.208356692
12.04084388,1.924386353,-0.225022493,-2.686608189,3.312364943
12.05083888,2.888470738,-0.06596127,-2.074698679,3.55696341
12.06083388,3.661859148,0.133049299,-1.760489337,4.065247501
12.07082888,4.234409149,0.159616123,-1.956960753,4.66748257
12.08082488,4.848725812,0.094160637,-1.851266775,5.190972635
12.09081988,5.280672496,0.049520069,-0.782924049,5.338625695
12.10081488,5.062617545,-0.430588961,0.025947458,5.080962166
12.11080988,4.158877156,-1.311168528,-0.91867944,4.456388002
12.12080587,3.405989084,-2.048626968,-2.684219309,4.79610961
12.13080088,3.247265831,-2.578496388,-3.696944196,5.555247554
12.14079587,3.168453257,-2.84225493,-3.720133376,5.653043558
12.15079088,3.195257771,-2.868007237,-3.159982104,5.331099758
12.16078587,3.082413818,-2.826403713,-2.588768191,4.918490993
12.17078188,2.615500492,-2.657986946,-2.775609536,4.64862837
12.18077688,2.152634316,-2.469945168,-3.259050894,4.621241863
12.19077188,2.423253104,-2.267606363,-3.944783694,5.155144287
12.20076688,3.542577703,-1.914676613,-4.221603747,5.834190733
12.21076188,4.574677047,-0.651943495,-3.624852705,5.873010943
12.22075788,5.476926103,0.437312674,-2.859298979,6.193831816
12.23075288,5.627493076,0.706066493,-2.851418102,6.3480543
12.24074788,4.57042846,0.335009204,-3.161562021,5.567452011
12.25074288,2.953552295,-0.570749643,-3.230770251,4.414419863
12.26073888,0.691426527,-1.514708936,-1.81676908,2.464358677
12.27073387,-1.287675878,-2.519331921,-0.115128186,2.831677417
12.28072888,-2.763306117,-3.395230792,0.964247961,4.482546928
12.29072387,-3.927763619,-5.427058125,1.891577772,6.961203445
12.30071888,-5.192039816,-7.804140152,3.15302918,9.889563892
12.31071487,-5.484848496,-9.194999798,3.920867997,11.40196431
12.32070988,-4.820109538,-8.535629754,4.218515832,10.67175277
12.33070487,-3.463385353,-5.886463333,4.450102994,8.151619799
12.34069988,-1.660458679,-3.373896641,3.828622323,5.366437409
12.35069488,-1.606279403,-2.73077484,1.561489584,3.532069431
12.36069088,-2.249902895,-2.448657795,0.459650792,3.356972875
12.37068588,-2.167633009,-1.742092534,1.403635812,3.11507829
12.38068088,-0.134660207,-0.555933968,0.804142133,0.986833582
12.39067588,1.260208582,-0.995389062,-0.999339441,1.891455623
12.40067187,1.805629549,-2.076295407,-0.460312697,2.789836638
12.41066688,1.807539834,-2.000934738,2.172172787,3.462553205
12.42066187,1.430029559,-1.423062016,2.933571482,3.560327468
12.43065688,1.14702666,-1.292631685,2.455247314,3.002466687
12.44065187,0.4561372,-0.145344239,3.490595079,3.523271221
12.45064788,-1.216492751,0.984812618,4.261406036,4.539745798
12.46064287,-2.78283991,1.463941655,4.51558684,5.502531021
12.47063788,-3.65497142,2.414013042,5.040974076,6.678150544
12.48063287,-4.591405054,3.11328507,5.51514292,7.822425821
12.49062788,-5.126759162,3.54749872,5.594525304,8.376581645
12.50062388,-4.83506964,4.122802175,5.780790113,8.590281167
12.51061888,-4.444701629,4.498417368,6.056700924,8.756412363
12.52061388,-3.932283517,4.65352061,6.344479244,8.796051648
12.53060888,-3.476569363,4.769599535,6.652250948,8.893146627
12.54060488,-3.479774514,4.921879742,6.661339275,8.983717037
12.55059987,-3.781986978,5.034315852,6.089724829,8.759709475
12.56059488,-4.048603932,5.017339046,5.540374825,8.500625748
12.57058987,-4.203892823,4.950073262,4.848417371,8.104510545
12.58058488,-4.184479775,4.813585215,3.583197433,7.315721253
12.59058087,-3.843256442,4.772547117,2.214090014,6.515368037
12.60057588,-3.330912005,4.218232827,0.87825413,5.446080543
12.61057087,-2.744606721,3.091242821,-0.358231129,4.149334618
12.62056588,-2.067633927,1.696006535,-1.428246742,3.031738277
12.63056087,-1.002619144,0.11727702,-2.424388926,2.626149408
12.64055688,0.499317426,-1.404640363,-3.408569753,3.720306466
12.65055188,1.92580094,-2.475439212,-4.369584496,5.378640834
12.66054688,3.158155726,-3.338929707,-5.133607421,6.890306548
12.67054188,3.098119732,-3.602511663,-5.797644128,7.495939807
12.68053787,2.876771044,-3.416471972,-7.116911634,8.402292758
12.69053296,3.043390085,-3.241959482,-6.96550851,8.263826795
12.70052796,3.386491836,-2.84268587,-6.064863052,7.505448271
12.71052296,3.665309882,-2.432384409,-4.365519219,6.197479205
12.72051796,3.750249461,-2.095516959,-3.221569364,5.369736634
12.73051396,3.293210328,-1.396380587,-3.221491012,4.813846419
12.74050896,1.911814401,0.274539639,-3.053392625,3.612978389
12.75050396,0.024101346,2.252462659,-2.607357659,3.445646945
12.76049896,-1.271724088,3.494089667,-1.577051657,4.038940045
12.77049396,-1.83646718,3.496121575,0.489691447,3.979356164
12.78048996,-2.336363772,2.530507119,2.738973806,4.400459006
12.79048496,-3.163645092,0.63235123,3.297816764,4.613470901
12.80047996,-4.147762477,-2.024814767,3.888583181,6.035303435
12.81047496,-4.834433463,-5.872912411,4.476647015,8.826279827
12.82046996,-4.434754346,-11.64019019,4.229942461,13.15497955
12.83046596,-3.006114378,-18.48470461,1.058412838,18.75743228
12.84046096,0.598078945,-20.43654963,-6.782384241,21.54091445
12.85045596,2.632245456,-14.8358561,-8.788120712,17.44311922
12.86045096,2.519230764,-3.754658554,-5.601803334,7.198901658
12.87044596,0.464272139,4.919887011,0.077648539,4.942354309
12.88044196,-2.261949475,7.568942335,4.432872419,9.058458002
12.89043696,-5.181860983,7.736616506,6.186938882,11.1796749
12.90043196,-6.365455545,8.377894095,6.711555748,12.48010875
12.91042696,-6.852403479,8.7947918,5.704285144,12.52368417
12.92042296,-7.125973649,8.549145593,5.070974386,12.23037906
12.93041796,-6.995946191,7.036302504,4.511399356,10.89979542
12.94041296,-6.857119258,4.014582492,2.783409137,8.419282839
12.95040796,-5.835619454,0.242477601,2.876512012,6.510573797
12.96040296,-3.201061717,-3.016929973,5.527895697,7.064438649
12.97039896,0.299223075,-5.329963939,6.822880887,8.663126089
12.98039396,3.434688388,-6.695436729,5.036045458,9.054706575
12.99038896,6.435839065,-5.467043724,2.249378253,8.738895472
13.00038396,9.221692922,-1.997680762,-0.059083775,9.435774461
13.01037896,8.911311606,0.969043847,-1.893344216,9.161619553
13.02037496,4.392195679,0.910381656,-3.519944301,5.701770385
13.03036996,-0.114313505,0.03365365,-3.981530521,3.983313374
13.04036496,-1.585751436,0.370488939,-2.1595773,2.70474468
13.05035996,-1.962917457,0.090454087,0.712715946,2.090260966
13.06035496,-1.847885476,-0.11034573,1.979128132,2.709945585
13.07035096,-1.489449403,-0.212694224,1.046338118,1.832627025
13.08034596,-1.044267692,0.289989737,0.274506785,1.118008513
13.09034096,-0.488605765,0.853847852,-0.252761172,1.015716475
13.10033596,-0.272606403,0.955025733,-1.060562786,1.452990648
13.11033096,-0.503328908,0.928370031,-1.227019494,1.618884721
13.12032696,-0.931467154,0.671298949,-0.792967885,1.395375005
13.13032196,-0.980970998,0.566477668,-0.116074247,1.138716065
13.14031696,-0.246529722,1.025048479,0.41257654,1.132131039
13.15031196,0.632164119,1.363221611,0.952198458,1.778956587
13.16030696,1.042598458,1.218954429,1.350201032,2.096641188
13.17030296,1.303078467,1.136068978,1.016360028,2.005406173
13.18029796,1.417774233,1.556057521,0.55517193,2.177065607
13.19029296,1.200375486,1.766920397,-0.088065061,2.137911235
13.20028796,0.922101523,2.027265919,-0.876486955,2.393388332
13.21028296,0.357906754,2.126019545,-1.68977618,2.739233449
13.22027896,0.196901552,2.089656295,-2.177420517,3.024333606
13.23027396,0.353517177,1.602863313,-1.873051015,2.490474915
13.24026896,0.538990857,0.987634485,-1.43091088,1.820285408
13.25026396,1.119719286,0.650061277,-1.703003313,2.139292225
13.26025896,1.999495446,0.56359616,-2.003192348,2.885897131
13.27025496,2.704955875,0.335632517,-2.063034507,3.418412914
13.28024996,3.318118589,0.041021726,-2.249675292,4.009068804
13.29024496,3.806078091,-0.100302553,-2.633391218,4.629367164
13.30023996,4.106621467,-0.094839499,-3.079484948,5.133864232
13.31023496,4.13710885,-0.248559875,-3.167149621,5.216156474
13.32023096,4.197468487,-0.583878981,-2.296977805,4.820348888
13.33022596,4.029080079,-1.112378399,-1.554791307,4.459624198
13.34022096,3.444322845,-1.780192991,-1.831157908,4.287841675
13.35021596,2.922826054,-2.267387093,-2.631941693,4.539942009
13.36021096,2.864982473,-2.579024391,-2.957059747,4.858363276
13.37020696,2.594019868,-2.763046208,-3.120735008,4.909414467
13.38020196,2.274090487,-2.825886819,-3.376659451,4.955699033
13.39019696,1.871111932,-2.805435598,-3.700843704,5.006772701
13.40019196,1.866908661,-2.775176257,-3.404237551,4.772398193
13.41018696,2.644583373,-2.629367164,-2.882170948,4.713205095
13.42018296,3.813181873,-2.457920369,-3.083491752,5.485403351
13.43017796,4.640283976,-2.036379974,-4.089326865,6.511656701
13.44017296,5.050496267,-1.511706975,-5.034412916,7.289587363
13.45016796,5.366178085,-0.588025827,-4.292877213,6.897132475
13.46016296,5.887684817,0.289693283,-2.915463824,6.576373165
13.47015896,5.817094306,0.249975486,-2.938470864,6.52193874
13.48015396,4.766061385,-0.209668874,-3.194822153,5.741619176
13.49014896,2.973043696,-0.949018303,-2.740673007,4.153421853
13.50014396,0.610944719,-2.346842567,-2.140154604,3.234375552
13.51013896,-1.207258682,-3.757472818,-1.227539896,4.133150094
13.52013496,-2.503832706,-4.766906893,0.377857016,5.397717617
13.53012996,-3.281824922,-6.577856823,2.674302431,7.822433681
13.54012496,-3.905961983,-8.797047071,4.477954452,10.61586795
13.55011996,-4.450030489,-9.812894372,5.413865637,12.05842479
13.56011496,-4.317177656,-9.137745032,4.873550166,11.21997765
13.57011096,-3.024750039,-7.176014705,4.200441212,8.848050984
13.58010596,-2.762646551,-4.737997674,3.811337954,6.678857306
13.59010096,-2.753257969,-2.758678923,4.03741967,5.611728471
13.60009596,-1.886178599,-2.131113639,2.544946818,3.817861883
13.61009096,-1.564345949,-1.447397543,-0.858648562,2.297697815
13.62008696,-0.133145486,-1.000219447,-2.405487509,2.608550712
13.63008196,1.262198389,-1.703151832,-1.053457468,2.367201634
13.64007696,1.728047522,-2.433065025,1.503974032,3.341839545
13.65007196,2.687509537,-1.517375266,2.195766302,3.787680671
13.66006696,2.592798385,-0.823019577,1.636928899,3.174822973
13.67006296,1.06285716,-0.177756525,2.80278067,3.002805722
13.68005796,-0.004820737,1.565423006,4.521868503,4.785171595
13.69005383,-1.179198333,3.597653797,5.163317124,6.40261394
13.70004883,-3.712476155,4.762471195,5.080975463,7.891762968
13.71004383,-5.370283999,5.178992924,6.124420452,9.652483816
13.72003983,-5.848776859,5.43647682,7.550757494,10.9898776
13.73003483,-5.905418837,5.279801846,7.440780723,10.86809537
13.74002983,-5.540228645,4.655698698,7.360075114,10.32183944
13.75002483,-4.613703411,4.412614156,7.978378408,10.21821633
13.76001983,-3.967808275,4.423233284,7.751466095,9.766970964
13.77001583,-3.677277963,4.350975732,7.37250571,9.317038343
13.78001083,-3.812477576,4.34106821,6.995561444,9.072912343
13.79000583,-4.119120475,4.263455778,5.923838736,8.380696512
13.80000083,-4.054357884,4.182648427,4.677287495,7.470567852
13.80999583,-3.681524504,4.236897724,3.490569351,6.609765457
13.81999083,-3.040136695,4.019665477,2.03373908,5.434725045
13.82998683,-2.085872854,3.432874582,0.155721585,4.019918242
13.83998183,-1.160997412,2.574516773,-1.493159315,3.194616776
13.84997683,-0.506008102,1.600291708,-2.45844808,2.9767339
13.85997183,-0.097720715,0.274080048,-3.590854947,3.602625218
13.86996683,0.260324765,-1.086652989,-4.90315725,5.028870124
13.87996283,0.374399265,-2.237639968,-5.500280467,5.949814506
13.88995783,1.112733032,-2.538827707,-5.894678087,6.513912087
13.89995283,1.529519933,-2.508395289,-6.203932645,6.864419743
13.90994783,1.712738927,-2.740412806,-6.79222335,7.521810621
13.91994283,2.755639832,-2.883911079,-6.612168285,7.722128167
13.92993883,3.633723808,-3.002614235,-4.795710569,6.724468813
13.93993383,3.560915741,-3.326703764,-2.734374386,5.587833402
13.94992883,3.009538507,-3.177924285,-2.621620188,5.101903292
13.95992383,2.145903001,-1.900435719,-3.114109235,4.232520755
13.96991883,0.581799712,-0.144806296,-2.473539744,2.545163773
13.97991483,-1.380583749,0.72595989,-1.555330127,2.202743983
13.98990983,-2.441931158,0.591166951,-0.871210574,2.659231845
13.99990483,-3.03995163,0.184962634,0.40333772,3.072165101
14.00989983,-3.876234446,-0.920203224,1.799837443,4.371656697
14.01989483,-4.547133153,-3.238721294,3.053140025,6.362970968
14.02988983,-4.595179724,-6.850741115,3.714800423,9.046992468
14.03988583,-3.339620848,-11.56097212,2.158404056,12.22570455
14.04988083,-1.324319209,-14.87273566,-1.153361826,14.97605859
14.05987583,1.2186685,-13.34378115,-3.65048836,13.88768208
14.06987083,2.088188936,-7.39896553,-2.173781795,7.989402433
14.07986583,1.261416909,0.548028533,1.914099054,2.356964802
14.08986183,-0.396180143,4.875907763,4.876602412,6.907437029
14.09985683,-2.191176238,5.603801327,5.668639348,8.266638656
14.10985183,-3.599058006,6.733656469,6.739101981,10.18385209
14.11984683,-4.938929054,7.728125764,6.160401878,11.04841615
14.12984183,-6.279068781,8.177226425,5.263740714,11.57586727
14.13983783,-6.892751021,7.620218323,4.292073805,11.13551263
14.14983283,-6.403543139,5.752726402,3.124408228,9.157573508
14.15982783,-5.455020679,3.133167357,2.433532802,6.745077479
14.16982283,-3.640555987,-0.161101901,3.175343324,4.833467383
14.17981783,-0.784388338,-3.223625538,4.316814544,5.444438858
14.18981283,1.459246049,-5.146549063,4.267495619,6.843090322
14.19980883,3.442944072,-5.575941684,3.052850003,7.229445531
14.20980383,5.546771094,-4.256256101,1.234610349,7.09976396
14.21979883,6.609409568,-1.611430069,0.308027812,6.809984056
14.22979383,5.470209991,0.391121424,-0.402741011,5.498942957
14.23978883,2.138394446,0.321253629,-1.625687335,2.705326969
14.24978483,-0.925815967,-0.031945678,-1.655715126,1.897247561
14.25977983,-2.175373699,0.329885289,-1.051260962,2.438488188
14.26977483,-2.161114387,0.288054308,0.554349336,2.249598601
14.27976983,-1.702821903,0.082654486,0.855540036,1.907454574
14.28976483,-1.23489774,0.305748568,0.579970703,1.398149001
14.29976083,-0.806979349,0.39092028,0.146324781,0.90854019
14.30975583,-0.217774138,0.882869922,0.154288141,0.922328415
14.31975083,0.165835514,1.277486812,0.516616011,1.387935905
14.32974583,0.432560203,1.295831282,0.171182428,1.376804439
14.33974083,0.409284923,0.986096667,-0.769949663,1.316329468
14.34973583,0.181873111,0.471746342,-1.175322433,1.279455064
14.35973183,0.248207142,0.536353982,-0.646869866,0.876198039
14.36972683,0.786975585,0.998074104,0.171016367,1.282469916
14.37972183,1.361149358,1.155432032,0.89817267,1.998615746
14.38971683,1.845712505,1.19553633,1.032735813,2.429507157
14.39971183,1.990031727,1.380310099,0.923046068,2.59181332
14.40970783,1.675271431,1.437810448,0.476380845,2.258488867
14.41970283,1.164326671,1.253568776,-0.571504373,1.803803903
14.42969783,1.036357213,1.280124491,-1.453667513,2.196794078
14.43969283,0.875570477,0.820612278,-2.029221813,2.357492171
14.44968783,0.524567823,0.292084209,-2.771511807,2.835800113
14.45968283,0.483005521,0.091261588,-3.440215761,3.475155751
14.46967883,0.901578819,-0.110503605,-3.667785301,3.778584977
14.47967383,1.622540363,-0.254800023,-3.398336248,3.774420424
14.48966883,2.643239391,-0.29659709,-2.723311746,3.806719214
14.49966383,3.868070271,-0.141903153,-2.248858143,4.476546334
14.50965883,4.924540225,-0.02073715,-2.192851027,5.390744112
14.51965483,5.570392091,0.010506862,-2.399591469,6.065263198
14.52964983,5.646704103,-0.019992215,-2.569182358,6.203737978
14.53964483,5.149819411,-0.403735623,-2.520946045,5.747939751
14.54963983,3.972357994,-1.166548759,-2.348442512,4.759794772
14.55963483,2.643486435,-1.934343138,-2.453761537,4.092755745
14.56962983,1.861191693,-2.38681004,-3.114415337,4.342865365
14.57962583,1.487536778,-2.448802221,-3.486628035,4.512867496
14.58962083,0.97156429,-2.423893667,-3.335148897,4.235848893
14.59961583,0.698078538,-2.230850181,-3.145514046,3.918962208
14.60961083,0.591658885,-2.081159706,-2.837744388,3.568484156
14.61960583,0.899475868,-2.148739486,-2.330249777,3.294875148
14.62960183,1.622658331,-2.34908322,-2.704641294,3.932721267
14.63959683,2.525324147,-2.216078945,-4.231515947,5.403146782
14.64959183,3.67278584,-1.550635398,-4.829781418,6.262636386
14.65958683,5.397309245,-0.743808516,-3.854675177,6.674033183
14.66958183,6.843585877,-0.281852751,-2.866757103,7.425119859
14.67957683,6.808472178,-0.103042558,-2.183587722,7.150801809
14.68957271,5.455580842,-0.378161071,-2.298169175,5.931943162
14.69956771,3.439822828,-1.596437223,-2.390982029,4.48305565
14.70956271,0.883946248,-2.515004981,-1.385763212,3.004488427
14.71955771,-0.978558729,-2.982482856,0.012694305,3.13893968
14.72955271,-2.362763805,-3.693689636,1.680999656,4.695929702
14.73954871,-4.060715562,-5.661929083,4.357414101,8.217901768
14.74954371,-5.237113663,-7.655263025,7.426376692,11.88198141
14.75953871,-5.322730933,-8.472208514,7.24384533,12.35245226
14.76953371,-4.605479887,-7.126868273,5.296951729,10.00301924
14.77952871,-2.980293074,-4.330750213,3.866461995,6.52587715
14.78952371,-1.662848144,-2.154928179,2.560724068,3.737122845
14.79951971,-0.768369453,-0.943137174,2.306637697,2.607772385
14.80951471,-0.002473957,-0.544161769,1.521058427,1.61546801
14.81950971,1.017268758,-0.468238598,1.146319001,1.602538724
14.82950471,0.921984286,-1.121450939,0.593943794,1.568590597
14.83949971,0.67110102,-1.570986047,0.461361102,1.769527566
14.84949471,0.28984531,-1.901505175,2.27182893,2.976732927
14.85949071,0.487146154,-1.715716914,3.389242659,3.829877505
14.86948571,0.829073491,-1.086147789,3.677829648,3.923456486
14.87948071,0.547905741,-0.664140202,3.744537023,3.842244192
14.88947571,-0.94267846,0.116311644,3.875856424,3.990543083
14.89947071,-2.014532146,1.041653402,4.523277682,5.059982467
14.90946671,-3.172815865,2.220970725,5.152240158,6.445544983
14.91946171,-4.325792944,2.833520359,6.036568376,7.948677876
14.92945671,-5.017046685,2.992436571,6.25309311,8.557254672
14.93945171,-4.880127991,3.298849382,5.583782215,8.116445052
14.94944671,-4.625584076,3.386023182,5.450017217,7.90973253
14.95944171,-4.360813965,3.395686875,5.692348053,7.934117099
14.96943771,-4.132438094,3.476560299,6.016304265,8.084518113
14.97943271,-4.193405257,3.743125505,5.951207213,8.186116509
14.98942771,-4.314550795,4.040624236,5.559223909,8.114614178
14.99942271,-4.310736656,4.168975298,5.018613154,7.819800735
15.00941771,-4.250978112,4.244689724,4.129399296,7.289728685
15.01941271,-3.933493013,4.434481573,2.892547124,6.595742792
15.02940871,-3.501798636,4.500542246,1.595784089,5.921486389
15.03940371,-2.853548242,4.291146437,0.35076745,5.165240858
15.04939871,-1.985149887,3.865756236,-0.694301895,4.400789301
15.05939371,-1.14650158,2.721392983,-1.653372731,3.384388723
15.06938871,0.030097373,1.083794285,-2.332404915,2.572086428
15.07938371,1.439927433,-0.644492388,-2.674066204,3.104736947
15.08937971,2.486524656,-2.479271477,-3.216748627,4.762044062
15.09937471,2.747647566,-4.304226658,-4.340811517,6.702132414
15.10936971,3.147414975,-5.051607823,-5.522447262,8.119260212
15.11936471,3.58482676,-4.747278374,-6.680359683,8.945101473
15.12935971,4.445122336,-3.852722792,-6.802320907,8.993005906
15.13935571,5.532071194,-2.855121728,-4.745043276,7.827577369
15.14935071,4.513259648,-2.407902117,-1.728669666,5.399611474
15.15934571,2.920332508,-1.431445754,-1.072182884,3.424464198
15.16934071,1.508506209,-0.747125056,-1.241023867,2.091393572
15.17933571,0.318325051,-0.055015283,-1.752369893,1.781897236
15.18933071,-0.361157368,0.793320984,-2.269327784,2.430975404
15.19932671,-0.572000071,1.47305688,-2.128349368,2.650839807
15.20932171,-0.747516381,1.75254911,-1.081808863,2.191008795
15.21931671,-0.881422151,1.79506363,0.249208331,2.015257611
15.22931171,-0.854351736,1.766755505,1.370036249,2.393395334
15.23930671,-1.046741357,1.024402946,1.885353118,2.387388792
15.24930171,-0.89770577,-0.649057894,1.597188005,1.943749296
15.25929771,-0.663016952,-3.062511942,-0.402680493,3.159228142
15.26929271,0.135539044,-5.80203831,-3.015244513,6.54016199
15.27928771,2.573175129,-8.61731828,-1.943821182,9.200969806
15.28928271,4.847070757,-9.775372204,2.534151689,11.20151425
15.29927771,3.37783591,-8.186332294,4.488933184,9.928561476
15.30927271,-0.036705165,-2.602333732,3.699588307,4.523321983
15.31926871,-3.299682903,1.555675113,3.799389753,5.267199903
15.32926371,-5.153977951,2.485288262,2.49597054,6.242596847
15.33925871,-5.28175657,3.304057497,1.074336268,6.322020786
15.34925371,-4.942098244,3.78807773,1.812917226,6.485409533
15.35924871,-4.112127498,4.196917387,4.010942016,7.114166428
15.36924371,-2.886938767,4.552620472,5.573748393,7.75418853
15.37923971,-1.846292987,4.259871435,6.211221199,7.754648362
15.38923471,-1.335066245,3.150665735,6.362209171,7.224043327
15.39922971,-1.052293288,1.536596818,5.822067947,6.112685672
15.40922471,-0.277210647,-0.115300661,4.148411517,4.159261726
15.41921971,0.877875523,-1.827416275,2.466580095,3.192825244
15.42921471,2.425354886,-3.655835347,2.48095489,5.04010075
15.43921071,4.46058559,-4.766483554,2.414984264,6.960484055
15.44920571,5.761249888,-4.461725505,2.441548019,7.685060278
15.45920071,4.316323963,-2.657637867,1.629578072,5.324398208
15.46919571,1.955601275,-1.431530539,0.974612736,2.612187975
15.47919071,-0.019934181,-0.872540815,0.34187252,0.937337541
15.48918571,-1.462634072,-0.289000388,0.261144837,1.513610345
15.49918171,-1.810709171,0.048627784,0.988488398,2.063526515
15.50917671,-1.316016309,0.078405315,0.967820537,1.635458012
15.51917171,-0.437695374,0.467503603,0.765443798,0.998018571
15.52916671,-0.206727871,0.824439281,0.571595662,1.024284209
15.53916171,-0.533739692,1.504278672,0.85395069,1.810238703
15.54915671,-0.909314978,1.963382165,0.826460663,2.31619526
15.55915271,-1.340550494,1.945865661,0.392842808,2.395369339
15.56914771,-1.478989318,1.626383153,-0.372963481,2.229715974
15.57914271,-1.325442897,1.67663237,-0.347350338,2.165305345
15.58913771,-0.883952534,1.646237374,-0.263283749,1.887005009
15.59913271,-0.138627177,1.221642394,-0.305522865,1.266874838
15.60912771,0.508376225,1.037240508,-0.422719778,1.230043198
15.61912371,1.239923421,0.965800397,-0.249215951,1.591316778
15.62911871,1.864892249,1.022548794,0.037214567,2.127161033
15.63911371,1.885872644,1.017806702,0.462845089,2.192412299
15.64910871,1.612278938,0.821613906,0.029119719,1.809790248
15.65910371,1.428352431,0.696798656,-0.305178464,1.618287035
15.66909871,1.196161617,0.68040014,-0.863469518,1.624600435
15.67909471,1.166891625,0.558137199,-0.940069286,1.599025784
15.68908896,1.323570473,0.363889187,-1.00192106,1.699441069
15.69908396,1.54858361,0.338028706,-1.311647415,2.057375402
15.70907896,1.62384897,0.181318649,-1.675851767,2.340564264
15.71907396,2.05241684,-0.045750369,-2.392205851,3.15232562
15.72906896,2.708401931,-0.339709196,-2.961549824,4.027607319
15.73906496,3.540024224,-0.666501308,-3.037250217,4.711781444
15.74905996,4.211276395,-1.002977579,-2.382466144,4.941351821
15.75905496,4.60984688,-1.03450752,-1.567611035,4.977780471
15.76904996,4.876092535,-0.753112605,-1.636612857,5.198264966
15.77904496,4.662590227,-0.46395902,-1.671809002,4.974932254
15.78903996,4.023495695,-0.608429686,-1.81779702,4.456802699
15.79903496,3.489572985,-1.105992655,-2.207030379,4.27449675
15.80903096,3.205146874,-1.571983582,-2.594179205,4.412920191
15.81902596,3.221979839,-2.060123763,-2.654235372,4.655129366
15.82902096,3.591605144,-2.517812814,-2.231753576,4.921354783
15.83901596,4.120172389,-2.833965917,-1.508192214,5.223200847
15.84901096,4.65624629,-2.897631571,-0.804316161,5.542907425
15.85900596,4.991613636,-2.819061949,-0.135242151,5.734248635
15.86900196,5.001936311,-2.878424052,-0.859775174,5.834715522
15.87899696,5.072326262,-2.763446158,-2.182093758,6.174679064
15.88899196,5.34846336,-2.507401847,-2.654239465,6.475964135
15.89898696,5.777097012,-2.295798129,-2.241054742,6.60816656
15.90898196,6.035784849,-1.880802523,-1.764801366,6.563736796
15.91897696,6.225490744,-1.238764211,-1.796586245,6.596892747
15.92897296,6.105783037,-0.360513589,-1.464091344,6.289206628
15.93896796,4.779445077,-0.56707116,-0.436767129,4.832745645
15.94896296,2.503031053,-1.219952549,0.930546949,2.935875729
15.95895796,0.883563621,-1.956125185,2.016654539,2.945166539
15.96895296,-0.603420997,-2.805213404,3.093291686,4.219217059
15.97894796,-2.111490091,-3.416652067,3.586574492,5.384739394
15.98894296,-3.190525619,-4.73708083,3.426310498,6.660254661
15.99893896,-3.58555006,-5.121989588,3.443603053,7.137881238
16.00893396,-2.93671436,-4.354693392,2.945387827,6.021873066
16.01892896,-1.360674564,-2.29577474,4.172233074,4.952731141
16.02892396,0.799774409,-0.421715811,5.548971401,5.622149673
16.03891896,1.602627524,-0.506804493,5.917134318,6.15123925
16.04891396,1.978729498,-0.37466619,5.193057232,5.569882278
16.05890996,3.609694383,0.108897375,4.103402575,5.466229493
16.06890496,5.013598582,0.325228567,3.792931796,6.295099362
16.07889996,3.921610009,-0.23215902,2.539791913,4.677976682
16.08889496,4.447080569,-0.624646354,2.359425483,5.072829315
16.09888996,5.936120812,-0.751459597,3.648343017,7.008040282
16.10888496,6.275881464,-1.694999059,3.91409049,7.58813642
16.11887996,4.976377546,-2.422732995,4.938071852,7.417447152
16.12887596,3.360931318,-1.747417009,6.531634583,7.550601026
16.13887096,1.73026888,-0.657276156,6.622186904,6.875987328
16.14886596,0.118795542,0.18537077,6.038688576,6.042700921
16.15886096,-0.853040497,1.004966217,5.869482434,6.015684436
16.16885596,-1.723636968,1.143103763,5.954051299,6.303041923
16.17885096,-1.942530701,0.919360056,5.792523136,6.178347086
16.18884696,-2.168281319,0.747075355,5.084093199,5.577415989
16.19884196,-2.745724124,0.803123256,4.470280566,5.307298397
16.20883696,-3.266113746,0.742913307,4.577601532,5.672200187
16.21883196,-3.265910555,0.805259244,4.467359882,5.592130052
16.22882696,-2.918860179,0.94406922,4.476754311,5.427001069
16.23882196,-2.398400391,0.724710925,4.79585675,5.410893856
16.24881696,-1.803580977,0.833374996,4.799827594,5.194782301
16.25881296,-1.555265808,1.263542372,4.306988883,4.750320442
16.26880796,-1.434155646,1.317397567,3.323496273,3.85200808
16.27880296,-2.100576263,1.039844273,2.510467834,3.434551717
16.28879796,-3.024202155,0.837599609,2.194740993,3.829394183
16.29879296,-3.576859051,0.878303246,2.027180842,4.204140749
16.30878796,-3.70651258,0.826044341,1.948289917,4.268069629
16.31878396,-3.600892569,0.55133221,1.757058483,4.044459051
16.32877896,-3.324539417,0.355563337,1.606043029,3.709226581
16.33877396,-3.051808906,0.146388552,1.301273285,3.32088533
16.34876896,-2.551166502,0.217117642,0.701239324,2.65468024
16.35876396,-1.943543147,0.289770466,-0.041357064,1.965461089
16.36875896,-1.438296937,0.576296312,-0.962076305,1.823843835
16.37875396,-0.7387688,0.777798965,-1.332061214,1.710303379
16.38874996,-0.06687709,1.234213908,-1.273310438,1.774563605
16.39874496,0.575463669,1.217096769,-1.917655477,2.34305047
16.40873996,1.372789995,1.520899383,-2.922078195,3.568785267
16.41873496,2.270302368,2.264469332,-3.683147983,4.883407956
16.42872996,3.629369679,3.111276551,-3.406449552,5.869945877
16.43872496,5.770648702,3.770255417,-1.796698804,7.123435895
16.44871996,7.5463025,4.018233494,0.295567688,8.554545113
16.45871596,8.18285437,3.162453722,0.219928691,8.77545371
16.46871096,8.283001387,1.770700622,-1.703884781,8.639833101
16.47870596,7.807891141,0.590472887,-3.21275878,8.463665948
16.48870096,6.861926254,0.494155211,-3.449402029,7.696011672
16.49869596,5.787708539,1.539973585,-2.265305192,6.403178616
16.50869096,4.550010568,3.019309205,-0.658713109,5.500247922
16.51868596,2.978760518,4.241638062,0.769285419,5.23987669
16.52868196,0.84986122,4.93280351,1.804843391,5.320927948
16.53867696,-1.788149298,4.154300541,3.533901604,5.739699595
16.54867196,-5.407974567,0.879972042,5.339680842,7.650668677
16.55866696,-9.233133,-4.901027402,2.767003896,10.81328466
16.56866196,-9.246182815,-11.21177874,-0.929683754,14.5622866
16.57865696,-4.763469607,-15.76817943,-0.367928736,16.47608864
16.58865196,1.466601846,-19.1914716,-2.257529564,19.379369
16.59864796,5.531457821,-20.75341493,-9.042581012,23.30385222
16.60864296,5.605267224,-13.15230355,-5.692096038,15.3883744
16.61863796,-0.333288953,-2.417697372,3.941720338,4.636108426
16.62863296,-6.007545721,5.536289375,9.637991288,12.63455507
16.63862796,-8.697002381,6.30242256,6.185342592,12.39422622
16.64862296,-7.961161281,7.737529841,2.557960382,11.39265633
16.65861896,-7.187646571,8.821090237,3.100702154,11.79356817
16.66861396,-5.518301001,9.034659789,5.314832515,11.84585025
16.67860896,-4.663004209,7.318527138,7.610090361,11.54200689
16.68860375,-3.943793761,4.973065099,8.733388435,10.79615484
16.69859875,-3.085726266,2.378072546,7.558055989,8.503008053
16.70859375,-2.637899421,-1.125939261,4.299988596,5.168767213
16.71858875,-2.092955002,-5.855332173,0.3144425,6.226094247
16.72858475,0.057085636,-8.687720511,-1.545953386,8.824382036
16.73857975,2.343097133,-8.461860112,-1.731440077,8.949361177
16.74857475,3.804703411,-5.845868454,-0.977169138,7.043067907
16.75856975,4.145032119,-2.637540402,0.224730644,4.918171866
16.76856475,3.091322051,0.343553156,0.726884919,3.194160685
16.77855975,1.467341519,2.044345636,0.751036259,2.626117986
16.78855475,0.533320154,2.517657863,0.701763088,2.667490006
16.79855075,-0.010986772,2.463238996,1.479911571,2.873639734
16.80854575,-0.17758871,2.274875622,2.507569077,3.390353893
16.81854075,0.378797979,2.20887459,3.476735716,4.136460577
16.82853575,0.799308167,2.044949654,4.048780518,4.605793777
16.83853075,0.805616216,1.666496222,3.177465863,3.677297439
16.84852575,0.895935525,1.397597977,1.593537004,2.301160741
16.85852075,0.714836147,1.108019884,0.432792192,1.387806853
16.86851575,0.43250597,0.472747386,-0.761067742,0.994874672
16.87851175,0.098635365,-0.350775636,-1.493412791,1.537222901
16.88850675,-0.050711732,-0.710305724,-1.6708255,1.816249915
16.89850175,0.152525424,-0.491055018,-1.774439331,1.847439844
16.90849675,0.3192685,0.139622739,-1.157631755,1.208940927
16.91849175,-0.011068487,0.715085238,-0.248900183,0.757245476
16.92848675,-0.369518594,0.963056298,0.029520838,1.031936483
16.93848175,-0.472283921,1.178571804,0.149079587,1.278400689
16.94847775,-0.244329414,1.426075087,0.226988327,1.46455137
16.95847275,-0.275367897,1.373575276,0.196970476,1.414685084
16.96846775,-0.097500859,1.024034572,0.306763059,1.07343225
16.97846275,0.270136978,0.375209396,-0.33143831,0.568865038
16.98845775,0.845628128,0.472407078,-1.286587418,1.610454148
16.99845275,1.546507556,0.803854158,-1.798912268,2.504785914
17.00844775,1.830231709,1.045345334,-1.949355279,2.870972131
17.01844375,1.879640389,0.993054854,-1.880048232,2.837919535
17.02843875,2.273644783,0.645834324,-2.430741341,3.390437441
17.03843375,2.961549824,0.314945653,-2.610816872,3.960597539
17.04842875,3.710740994,-0.113868678,-2.550705156,4.504293684
17.05842375,4.473386022,-0.320397012,-2.652228023,5.210388684
17.06841875,5.226643639,-0.384749129,-2.991836647,6.034643497
17.07841375,5.657000465,-0.683202125,-3.184705886,6.527692623
17.08840875,5.606443684,-1.039319778,-2.499360756,6.225688763
17.09840475,5.205788959,-1.284604043,-2.050215949,5.740542803
17.10839975,4.662080057,-1.537099679,-2.76578212,5.634466844
17.11839475,4.362204433,-1.92206457,-3.456534755,5.888190914
17.12838975,4.405719119,-2.284701283,-3.45478673,6.046963888
17.13838475,4.579766171,-2.692514169,-3.210614898,6.207409988
17.14837975,4.746265052,-3.102230324,-3.188949795,6.50540281
17.15837475,4.885237873,-3.325642494,-3.358092202,6.79722225
17.16837075,5.02859786,-3.131437166,-3.532187786,6.89703166
17.17836575,5.199124303,-2.735664282,-3.371861225,6.773787766
17.18836075,5.518733695,-2.088652913,-2.83342505,6.545776509
17.19835575,6.261675653,-1.173542029,-2.526335131,6.853331458
17.20835075,6.997568793,-1.370948707,-2.101608589,7.433856875
17.21834575,5.632161493,-2.225898174,-1.934485956,6.357523234
17.22834075,2.29254503,-3.107077081,-2.69180958,4.706966063
17.23833575,-0.773006587,-4.614334325,-3.026409479,5.572142746
17.24833175,-3.231317258,-5.38915121,-1.876276193,6.557802554
17.25832675,-4.895690648,-5.740232656,0.56471824,7.56551152
17.26832175,-5.458920772,-6.750982354,3.180897009,9.246279496
17.27831675,-5.931187516,-7.591613744,4.8680187,10.79394231
17.28831175,-5.793975585,-7.363767046,5.331249157,10.78041909
17.29830675,-4.473758782,-5.867606648,4.459026138,8.6212667
17.30830175,-2.793500261,-3.890238528,3.789906739,6.107453856
17.31829775,-2.056727262,-2.604686651,2.977743688,4.458864996
17.32829275,-2.156080665,-1.934830796,1.614992777,3.316693491
17.33828775,-1.589931318,-1.823113309,0.464867678,2.463275399
17.34828275,-0.576051752,-1.265880674,0.169670703,1.401098729
17.35827775,0.101848118,-1.192297558,0.412238351,1.265656732
17.36827275,0.590734988,-1.580911111,2.103226221,2.696629063
17.37826775,2.091065036,-1.604018138,3.466316855,4.354397743
17.38826275,2.792426713,-1.663721133,4.174525475,5.290772902
17.39825875,1.030246361,-1.347879102,4.615220178,4.917158014
17.40825375,0.871687414,-0.389210554,3.78639724,3.904885128
17.41824875,-0.004537439,0.10004469,3.940195384,3.941467898
17.42824375,-1.051220031,0.708590151,5.557541081,5.700300555
17.43823875,-1.603958496,1.520850266,6.490001239,6.856076463
17.44823375,-2.94263759,2.265126559,6.266606026,7.284247758
17.45822875,-4.158529247,3.241706883,6.128549756,8.084624365
17.46822375,-4.621613232,3.895791628,6.83792051,9.126535935
17.47821975,-4.362098891,4.287189626,7.7705976,9.88888713
17.48821475,-4.563719072,4.552733908,7.917443404,10.20983976
17.49820975,-4.597943703,4.484533739,7.950428717,10.22063824
17.50820475,-4.153823408,4.760175578,8.007137938,10.19940088
17.51819975,-4.299305642,4.96195188,7.152285535,9.708768399
17.52819475,-4.38488549,5.649413702,6.254339152,9.500518626
17.53818975,-4.503735995,5.858037094,5.256976655,9.068408905
17.54818475,-4.063699688,5.643589876,3.949648578,7.997717532
17.55818075,-3.61752936,5.274832882,2.328101949,6.806646699
17.56817575,-3.382170744,4.71081046,0.500565806,5.820771448
17.57817075,-2.9415924,3.816101096,-1.128818723,4.948719544
17.58816575,-1.912482153,3.042115685,-2.203466208,4.215129791
17.59816075,-0.753677154,2.016070256,-2.898506899,3.610250791
17.60815575,0.330150168,0.51123142,-3.496573272,3.549138113
17.61815075,0.522164105,-1.223526367,-3.760431802,3.988799251
17.62814575,0.428971182,-3.026021224,-4.779169966,5.672855214
17.63814175,1.288541704,-4.527268699,-6.941397516,8.386864794
17.64813675,3.110438938,-6.178541111,-8.77672215,11.17497438
17.65813175,5.748533948,-7.446817389,-8.698492252,12.81266948
17.66812675,7.762013887,-7.823146527,-5.986060712,12.54126804
17.67812175,7.4366292,-7.185459713,-4.237308784,11.17537788
17.68811725,5.747760361,-4.686120007,-4.117176861,8.482194008
17.69811225,3.036665495,-1.417226495,-3.735301639,5.01820153
17.70810725,0.043418207,0.999219573,-2.807765129,2.980582143
17.71810325,-1.782720743,1.742093119,-0.512852561,2.544798505
17.72809825,-2.712758107,1.588566871,3.101364936,4.4160011
17.73809325,-3.322620068,1.100487501,6.629653798,7.49687844
17.74808825,-4.411171356,-1.797864447,6.252696669,7.860468493
17.75808325,-5.30109799,-6.793452435,3.23762348,9.205152996
17.76807825,-4.133961001,-9.86296174,0.786788767,10.72318443
17.77807325,-1.425568133,-9.304835651,-2.270844551,9.683436682
17.78806825,0.029885558,-6.599588,-3.47477456,7.458519502
17.79806325,-0.06733215,-1.663732828,-0.12787539,1.669997801
17.80805925,-1.730736949,2.001048174,2.679402373,3.765480216
17.81805425,-3.449019037,3.768271456,3.268477775,6.064532055
17.82804925,-4.91866085,5.225923262,3.556525651,8.009517663
17.83804425,-6.206998925,6.046666517,3.907909398,9.50582808
17.84803925,-6.840317284,5.835183837,3.918429708,9.807823527
17.85803425,-6.316379279,5.633858939,3.372800288,9.111135798
17.86802925,-5.332731426,4.630760908,2.102389923,7.368990056
17.87802425,-3.537242119,2.468651764,2.174546903,4.830629107
17.88802025,-0.458614227,-0.318842822,4.012489189,4.051179735
17.89801525,3.13192307,-2.616919026,5.330534627,6.713553956
17.90801025,5.116350533,-4.024839093,4.921666903,8.160831919
17.91800525,5.60966433,-4.262937714,2.75763461,7.566076956
17.92800025,5.760966298,-2.845193156,1.105723683,6.519699506
17.93799525,6.255810896,-0.761990433,0.022473189,6.302087308
17.94799025,6.319462516,0.758990226,-0.916660981,6.430547412
17.95798525,4.687523631,1.411621354,-1.496150458,5.118986114
17.96798025,1.911471754,1.019641559,-1.495958669,2.632733468
17.97797625,0.230589846,0.934265193,-0.591670396,1.129644628
17.98797125,-0.40904526,0.996111193,0.123557514,1.083892058
17.99796625,-0.762062061,0.858019255,0.487200533,1.24671568
18.00796125,-1.063903373,0.739766335,0.602366123,1.428982003
18.01795625,-1.146576717,0.725116721,0.314741585,1.392657421
18.02795125,-1.14819698,0.740625876,-0.017484344,1.366451132
18.03794625,-1.06420582,0.759162135,-0.205727851,1.323323514
18.04794125,-1.048785689,0.676190729,-0.573593766,1.373388194
18.05793625,-1.292364175,0.396168741,-0.827872181,1.585095322
18.06793225,-1.389617112,0.202744017,-0.723955464,1.579953281
18.07792725,-1.134865694,0.432541931,-0.328821754,1.258227488
18.08792225,-0.70324755,0.853481816,0.047412733,1.106903923
18.09791725,-0.126242775,1.399581352,0.460692839,1.478851951
18.10791225,0.327762457,1.900511148,1.314747024,2.334080245
18.11790725,0.602511719,1.873414566,1.395615771,2.412560028
18.12790225,0.90885758,1.574979111,0.818576277,1.99415356
18.13789725,1.042137771,1.104578798,-0.002748484,1.51860232
18.14789225,0.962865972,0.506081777,-1.379386385,1.756683365
18.15788825,0.738724946,0.270906764,-2.100367956,2.242911182
18.16788325,0.603572404,0.119696597,-3.176248473,3.235302348
18.17787825,0.52837224,-0.031654487,-3.478415036,3.518458525
18.18787325,0.762164972,-0.247717291,-3.172791599,3.272440348
18.19786825,1.407804292,-0.432340202,-2.293277102,2.725426726
18.20786325,2.590154274,-0.719147884,-1.775176811,3.221385657
18.21785825,4.050742258,-0.671379055,-1.67062918,4.43286189
18.22785325,5.213534766,-0.472426373,-2.109816471,5.644063871
18.23784825,5.829164713,-0.414934795,-2.612439182,6.401263205
18.24784425,5.809686468,-0.525434307,-2.625772003,6.397125658
18.25783925,4.921828871,-0.762506157,-2.480016997,5.563838548
18.26783425,3.710867586,-1.1586825,-2.278660671,4.506148891
18.27782925,3.286640688,-1.499753512,-2.262092585,4.26243246
18.28782425,3.419415168,-1.880359304,-2.29409542,4.526701338
18.29781925,3.482884063,-2.497380888,-2.825549727,5.133334585
18.30781425,3.470283606,-2.802655832,-2.848747094,5.292741069
18.31780925,3.366997804,-3.017014173,-3.104636453,5.484324593
18.32780425,3.195945404,-3.148715104,-3.496924397,5.688317332
18.33780025,3.226140425,-2.973741853,-3.653475995,5.709554229
18.34779525,3.622827814,-2.228293194,-3.385422088,5.43610657
18.35779025,4.29731905,-1.431324717,-2.925494723,5.392046071
18.36778525,5.015829295,-1.367715197,-3.504548582,6.269852402
18.37778025,5.408026022,-1.617651506,-3.735268017,6.768734668
18.38777525,4.55794787,-1.947377166,-3.486715159,6.060061816
18.39777025,2.88769452,-2.57214865,-3.355927563,5.120251764
18.40776525,0.422604003,-3.253995391,-2.757665015,4.286233368
18.41776025,-1.754484246,-4.013557475,-1.645192477,4.67905085
18.42775525,-3.456992592,-4.439762778,0.603663072,5.659213763
18.43775125,-4.750677361,-5.74740602,3.700597537,8.324423913
18.44774625,-5.320876197,-6.675381364,6.321204987,10.62215008
18.45774125,-4.677297143,-6.80689343,6.890404533,10.75586265
18.46773625,-3.197314237,-5.862143594,6.118341687,9.056580527
18.47773125,-2.567051048,-4.413880078,4.225827191,6.627948693
18.48772625,-2.350056051,-2.801844823,2.060484098,4.197462635
18.49772125,-1.605001347,-1.875086285,1.607413616,2.945463704
18.50771625,-1.556648382,-1.578776878,2.580965667,3.402510013
18.51771125,-0.612893889,-0.37343769,1.315240091,1.498316096
18.52770725,0.744267668,-0.066578152,0.601422529,0.959205958
18.53770225,1.297654736,-1.198173425,1.210318092,2.14112056
18.54769725,2.47056468,-1.588209021,2.355780036,3.765076004
18.55769225,3.921407695,-1.592607297,3.525840048,5.508664481
18.56768725,2.163253152,-1.337745293,3.195459208,4.084138369
18.57768225,0.620076462,-0.346087339,3.027378362,3.109548362
18.58767725,-0.475322207,0.291419966,3.629137252,3.671715402
18.59767225,-1.105522831,1.031565785,4.851460555,5.081631452
18.60766725,-2.213351803,2.032403283,5.838121478,6.566068207
18.61766225,-3.435764861,2.903570588,6.181641304,7.645122076
18.62765825,-3.854422578,3.594326731,5.962154371,7.957577696
18.63765325,-4.439984095,3.997527918,6.274113851,8.663613151
18.64764825,-3.954328689,4.573728336,7.309620659,9.486108815
18.65764325,-3.961431302,4.50011306,7.0001059,9.216584949
18.66763825,-3.915655789,4.493681123,7.005584157,9.198029119
18.67763325,-3.91930416,4.889873838,6.643329851,9.132668983
18.68762825,-3.816546654,5.178509944,6.06028936,8.837991895
18.69762325,-3.921163282,5.37316083,5.188897523,8.436292805
18.70761825,-3.839345532,5.243820419,4.119003823,7.694440799
18.71761325,-3.309387819,5.14563222,3.083145889,6.850939151
18.72760925,-2.901804144,4.902006226,1.893694172,6.003016737
18.73760425,-2.739424334,4.178408026,0.285068428,5.004478327
18.74759925,-2.503441527,3.185448482,-1.249862519,4.239865308
18.75759425,-2.180804593,2.168030035,-2.028553184,3.683923306
18.76758925,-1.74642956,0.874955131,-2.716378995,3.34578504
18.77758425,-1.058398366,-0.623825405,-3.789726352,3.983891447
18.78757925,-0.538152586,-1.990277603,-4.445819324,4.900624716
18.79757425,-0.375004452,-3.141959816,-5.039475435,5.950533798
18.80756925,0.185996129,-4.095903229,-6.811063664,7.949943777
18.81756425,1.463104334,-5.090921577,-8.263784512,9.815716544
18.82755925,3.684868234,-6.082853181,-8.851810924,11.35490702
18.83755525,6.087380095,-5.893330888,-6.063688931,10.41901477
18.84755025,6.517229383,-4.628515577,-2.771441348,8.460397297
18.85754525,4.973076208,-2.427124254,-2.17193656,5.944722663
18.86754025,2.572048371,-0.09312685,-2.544874313,3.619460001
18.87753525,0.321652848,1.694217287,-1.887273929,2.55648893
18.88753025,-0.765415001,2.259353603,-0.190929133,2.393113612
18.89752525,-1.521839907,1.668087249,2.532330866,3.392817618
18.90752025,-1.869832415,0.564174449,5.230388196,5.583146671
18.91751525,-2.212566961,-1.654638069,5.839017856,6.459675628
18.92751025,-3.471842181,-6.776859791,4.123464957,8.659242462
18.93750625,-3.372422266,-10.7383063,1.134545778,11.31245544
18.94750125,-1.545850329,-12.63130377,-1.735299239,12.84331545
18.95749625,0.092934038,-11.63006749,-3.820306413,12.24180737
18.96749125,0.764098354,-5.463715489,-3.499689546,6.533288617
18.97748625,-0.160711015,0.97722761,0.636727725,1.177380154
18.98748125,-1.931228911,3.972227016,4.022493775,5.974001066
18.99747625,-3.549849008,5.473494957,5.238326375,8.366638407
19.00747125,-5.320402572,6.476259112,4.809972221,9.663562924
19.01746625,-6.758766752,6.889190066,4.040027236,10.46248956
19.02746125,-6.88799548,7.014863688,3.588678321,10.46572532
19.03745625,-5.993218288,6.721031746,2.848731891,9.444903735
19.04745225,-4.852280919,5.132245604,1.806668015,7.290310307
19.05744725,-2.383164302,2.48968069,2.696990798,4.37627026
19.06744225,1.736950347,-0.355148184,4.652223698,4.978585349
19.07743725,4.595773509,-2.852624382,5.695531862,7.854787279
19.08743225,5.224714642,-4.906710895,4.592839376,8.512792047
19.09742725,5.039084256,-5.102703717,2.503055027,7.595738268
19.10742225,5.517599335,-3.201333613,0.744141295,6.422319331
19.11741725,5.362200809,-0.846633557,-0.671059213,5.469945736
19.12741225,3.630862473,0.689085009,-1.67164528,4.056155617
19.13740725,0.818415698,1.033512323,-1.968523622,2.369184929
19.14740225,-1.296753972,0.909182977,-0.551034586,1.676849327
19.15739725,-1.984123262,1.069045853,0.432980472,2.295011164
19.16739325,-2.041320726,1.111467403,0.677018695,2.420889176
19.17738825,-1.925775066,1.046183825,0.919395724,2.376636005
19.18738325,-1.821754416,0.947243088,0.737155554,2.181617961
19.19737825,-1.496101487,0.993988069,0.35597202,1.831132989
19.20737325,-0.725149758,0.857462016,-0.487695792,1.224308158
19.21736825,-0.687389317,0.599354807,-0.389413453,0.9916517
19.22736325,-1.427906435,0.160424209,0.112095217,1.44125572
19.23735825,-1.686474988,-0.213474827,0.109979694,1.703486108
19.24735325,-1.357194301,-0.059159789,-0.16642696,1.368639538
19.25734825,-0.924794166,0.316986916,-0.101342772,0.982850605
19.26734325,-0.332887761,0.835620911,0.038225661,0.900298711
19.27733925,0.267764178,1.353106513,0.248501403,1.401551939
19.28733425,0.588088392,1.767159548,0.447191545,1.915380146
19.29732925,0.93520718,1.784978938,-0.013203086,2.015176567
19.30732425,1.125187602,1.520709348,-0.288777755,1.913634409
19.31731925,1.039503088,1.371901803,-0.667445633,1.846121584
19.32731425,0.792084298,1.068753492,-1.294186606,1.855950035
19.33730925,0.609831263,0.631081215,-2.258672987,2.42317175
19.34730425,0.593542382,0.428645346,-2.964332514,3.053407383
19.35729925,1.151549189,0.092291282,-3.016980259,3.2305964
19.36729425,2.201909679,-0.256115647,-2.735749651,3.521125902
19.37728925,3.428373395,-0.398835071,-2.242925851,4.116251927
19.38728425,4.585018725,-0.241339148,-2.253021653,5.114366809
19.39728025,5.560260036,-0.17546734,-2.862302694,6.256201497
19.40727525,6.06889997,-0.468930323,-3.17463815,6.865112517
19.41727025,5.841538006,-0.806512302,-2.26696317,6.317685524
19.42726525,5.122126998,-1.209831018,-1.255426437,5.410727457
19.43726025,4.279906042,-1.604138006,-1.543813598,4.824335695
19.44725525,3.315636446,-2.089186764,-2.909153509,4.880709018
19.45725025,2.879052043,-2.621551775,-4.252841327,5.766119469
19.46724525,3.086974939,-2.978094521,-4.80708545,6.442556307
19.47724025,3.250945776,-3.189597082,-4.027836376,6.079937816
19.48723525,3.282984132,-3.267550406,-3.20148681,5.630664993
19.49723025,2.992288052,-3.242716112,-3.604258227,5.69733911
19.50722525,2.796384693,-2.85954807,-4.341874541,5.903275112
19.51722025,3.405682398,-2.156073064,-4.172791775,5.801682071
19.52721625,4.479664178,-1.458296753,-3.42864763,5.826632401
19.53721125,5.385210772,-1.457196307,-3.696371754,6.692315016
19.54720625,5.680154854,-1.522219684,-4.135837957,7.189330118
19.55720125,4.480085177,-1.970919811,-3.685587734,6.126927863
19.56719625,2.202916862,-3.155877943,-3.013377205,4.888031349
19.57719125,-0.686730335,-4.172016435,-2.49403862,4.908925374
19.58718625,-3.184880717,-4.527081589,-0.8974482,5.607436684
19.59718125,-4.75370768,-5.487452846,2.681230212,7.739436084
19.60717625,-5.43507992,-7.0395021,5.988715932,10.72191224
19.61717125,-5.823886431,-7.936258575,7.47575175,12.36077334
19.62716625,-5.588171135,-7.827301558,6.822154663,11.79135703
19.63716125,-4.351726515,-6.619432865,5.405404716,9.590245839
19.64715625,-3.736969557,-4.982718852,3.826567612,7.309928065
19.65715225,-3.931342115,-2.537206274,1.654912742,4.963023543
19.66714725,-3.05447436,-0.906020218,-0.008783395,3.186026271
