Time (s),Linear Acceleration x (m/s^2),Linear Acceleration y (m/s^2),Linear Acceleration z (m/s^2),Absolute acceleration (m/s^2)
0.022743292,1.355778252,1.439939712,1.991296188,2.806567574
0.032733292,1.464631042,1.425018787,1.920366538,2.804216517
0.042722292,1.234890431,1.565612164,1.625016074,2.572308898
0.052712292,0.914824955,1.779092253,1.442109321,2.466121092
0.062701292,0.687453417,2.071662658,1.196398795,2.489126041
0.072691292,0.877856812,2.37263522,0.296788879,2.547177675
0.082680292,1.001937286,2.618696872,-0.554225412,2.858079327
0.092669292,0.774046003,2.77390361,-0.667246243,2.956164069
0.102659292,0.564072342,2.927878048,-0.211782058,2.989230521
0.112649292,0.538523628,3.007413922,0.017952706,3.055301703
0.122638292,0.570953273,2.944125121,-0.146721259,3.002563488
0.132627292,0.458593433,2.743784018,-0.202186192,2.789182305
0.142617292,0.421888084,2.458632852,-0.161072665,2.499761881
0.152606292,0.4183101,2.006513274,0.071062966,2.050884883
0.162596292,0.260922003,1.386593517,0.606198973,1.535642884
0.172585292,0.090029433,0.764307684,1.212759304,1.436334454
0.182575292,-0.242137805,0.194208544,1.942483631,1.967127432
0.192564292,-0.699568774,-0.246619184,2.751305584,2.849543807
0.202554292,-1.135492442,-0.616066734,3.551019913,3.778706621
0.212543292,-1.624394808,-0.98505177,4.434512563,4.824301727
0.222532292,-2.212240248,-1.190734889,4.965039795,5.564483503
0.232522292,-2.540730976,-1.259598133,5.046588573,5.788778591
0.242511292,-2.419790383,-1.231568627,4.559413183,5.306636916
0.252501292,-1.896383014,-1.151496856,3.488542998,4.134264844
0.262490292,-1.055416505,-1.061311741,1.976651836,2.479402971
0.272480292,0.021353008,-0.962240612,0.419047726,1.049744704
0.282469292,0.998896441,-0.816722125,-0.816688212,1.527026118
0.292458292,1.654855,-0.638761825,-1.253127896,2.171840525
0.302448292,2.164840379,-0.433685061,-1.092674451,2.463443536
0.312437292,2.582804031,-0.292588239,-0.86208424,2.738553227
0.322427292,2.767377825,-0.258923188,-0.656535898,2.855951791
0.332416292,2.863685853,-0.355492878,-0.770380018,2.986730189
0.342406292,3.017677832,-0.630588587,-1.380588427,3.37787594
0.352395292,3.02077978,-0.967230041,-2.248046842,3.887719001
0.362384292,2.620429987,-1.1828315,-2.846711678,4.045925241
0.372374292,1.936465823,-1.281883772,-3.040145173,3.825651391
0.382363292,1.262106881,-1.386504055,-2.916159058,3.466884902
0.392353292,0.730574732,-1.529242629,-2.526888862,3.042612328
0.402342292,0.290561046,-1.617576369,-2.041574641,2.620878869
0.412332292,-0.131184019,-1.607927002,-1.760483782,2.387873873
0.422321292,-0.337540245,-1.589770081,-1.767878755,2.401394933
0.432311292,-0.337926161,-1.579973656,-1.87026584,2.471518796
0.442300292,-0.215492683,-1.614737108,-1.904314762,2.506038255
0.452289292,-0.002992048,-1.664200167,-1.886921049,2.51595751
0.462279292,0.112209905,-1.688685821,-1.909498318,2.551555348
0.472268292,0.14325301,-1.675478715,-2.011911716,2.622124921
0.482258292,0.202252613,-1.649598938,-2.172930586,2.735637057
0.492247292,0.323549612,-1.510993615,-2.185565835,2.676655389
0.502237292,0.528286104,-1.459071217,-2.15211099,2.653216301
0.512226292,0.378361923,-2.080440937,-2.135083314,3.004991347
0.522216292,0.155192778,-2.368000717,-2.201662635,3.237102184
0.532205292,0.074172424,-1.927372818,-2.473884437,3.13693668
0.542194292,-0.022818704,-1.260559707,-2.6839556,2.965324456
0.552184292,-0.26744079,-0.519834575,-2.347285202,2.41898747
0.562173292,-0.466071729,0.176116893,-1.585576605,1.662014797
0.572163292,-0.672543675,0.635762422,-0.791834037,1.21799425
0.582152292,-0.767079118,0.879490231,-0.17965687,1.180758244
0.592142292,-0.704539054,1.068166724,-0.09450036,1.283076672
0.602131292,-0.452622841,1.390058577,-0.807322726,1.67000008
0.612120292,-0.036909672,1.549798077,-0.272424116,1.573992154
0.622110292,0.464164002,1.463541998,0.897600812,1.778507975
0.632099292,0.874499925,1.189900053,1.944581612,2.441722732
0.642089292,1.153236622,0.853167528,2.607290416,2.97587178
0.652078292,1.207647083,0.537745181,2.880861171,3.169691223
0.662068292,1.102513634,0.311261688,2.894568214,3.113028317
0.672057292,0.875827097,0.281581733,2.489084274,2.653658211
0.682047292,0.599073958,0.488715035,1.690238841,1.858666009
0.692036292,0.419636906,0.691796071,1.225668787,1.468652754
0.702025292,0.328886402,0.758973927,1.095743655,1.372902708
0.712015292,0.322578462,0.688240086,0.887843564,1.168758946
0.722004292,0.433291507,0.560191107,0.618560572,0.940304625
0.731994292,0.638043933,0.406205779,0.399246715,0.855278396
0.741983292,0.829575621,0.256224405,0.250841458,0.90375223
0.751973292,0.838617244,0.151033873,0.188745782,0.872762902
0.761962292,0.748047089,0.088744434,0.350171034,0.830704385
0.771952292,0.631199548,0.083109473,0.502362363,0.810979653
0.781941292,0.519981815,0.159474694,0.474184631,0.721570738
0.791930292,0.360976506,0.243000342,0.24707936,0.500401253
0.801920292,0.200480231,0.339840247,-0.024041412,0.395299514
0.811909292,0.066803818,0.337619913,-0.178634777,0.387763251
0.821899292,-0.047857377,0.170533314,-0.321876358,0.367391248
0.831888292,-0.091980211,-0.069964567,-0.419485098,0.435112798
0.841878292,-0.114876007,-0.390452942,-0.419020244,0.584147209
0.851867292,-0.154693353,-0.708555433,-0.338052095,0.800162517
0.861857292,-0.193169274,-1.038034414,-0.150158252,1.066478933
0.871846292,-0.176059005,-1.325848109,0.138774893,1.34466667
0.881838917,-0.212463185,-1.577487128,0.356796514,1.631229597
0.891828917,-0.244638513,-1.753576466,0.558803782,1.856647541
0.901817917,-0.221430914,-1.790841064,0.728414551,1.945952498
0.911807917,-0.218125702,-1.72831474,0.822919589,1.926615507
0.921796917,-0.254523085,-1.627513128,0.752460641,1.811015736
0.931786917,-0.296482558,-1.482555243,0.560799437,1.612565646
0.941775917,-0.326911614,-1.322485522,0.362215129,1.409623694
0.951764917,-0.406059818,-1.185655925,0.172509819,1.265078727
0.961754917,-0.529841207,-1.044682113,-0.057185184,1.172758529
0.971743917,-0.621644466,-0.855631472,-0.378380342,1.123262543
0.981733917,-0.653159716,-0.631443669,-0.819376761,1.223403858
0.991722917,-0.657196853,-0.479047907,-1.350807973,1.576729774
1.001712917,-0.665551282,-0.436020951,-1.882510495,2.043751096
1.011701917,-0.764315066,-0.461543024,-2.221648418,2.394351932
1.021691917,-0.99890185,-0.568986269,-2.208558256,2.489835306
1.031680917,-1.14599565,-0.680458977,-2.079694394,2.4701132
1.041669917,-1.135549745,-0.767320608,-1.890006625,2.334604716
1.051659917,-0.925699315,-0.845189368,-1.542537589,1.987633392
1.061648917,-0.654543606,-0.949211042,-1.135998226,1.618616973
1.071638917,-0.459585157,-0.92806963,-0.877199292,1.35720682
1.081627917,-0.299821684,-0.763830259,-0.655401539,1.050181357
1.091617917,-0.070956254,-0.497025463,-0.465863459,0.684907193
1.101606917,0.241070323,-0.139453901,-0.269254925,0.387376439
1.111595917,-0.000122938,0.079844461,-0.203008311,0.218145656
1.121585917,-0.273256321,0.299505057,-0.103588103,0.418452854
1.131574917,-0.170942911,0.556760619,0.176388277,0.608536514
1.141564917,-0.107217762,0.752078671,0.421592435,0.868825735
1.151553917,-0.174450802,0.831162994,0.650104546,1.069533041
1.161543917,-0.279823621,0.846332133,0.723619249,1.148130723
1.171532917,-0.414998968,0.805519006,0.731481416,1.164538567
1.181522917,-0.477779645,0.721094568,0.828737569,1.197938531
1.191511917,-0.504465753,0.609934905,0.914194041,1.209238202
1.201500917,-0.550588736,0.465925878,0.882819636,1.140002364
1.211490917,-0.576674773,0.320008465,0.792532194,1.031051158
1.221479917,-0.631498706,0.26479233,0.733986363,1.003813516
1.231469917,-0.688317854,0.20060379,0.840562978,1.104793858
1.241458917,-0.669208569,0.100423151,1.089074906,1.28218917
1.251448917,-0.721959663,0.023737795,1.297991243,1.485452963
1.261437917,-0.754065555,-0.049176692,1.470277698,1.653103057
1.271426917,-0.801568189,-0.107448142,1.641138017,1.829587565
1.281416917,-0.906437709,-0.141432306,1.805362331,2.025084088
1.291405917,-1.015874782,-0.181647189,1.909010076,2.170096022
1.301395917,-0.98267897,-0.191142629,1.994127409,2.231308492
1.311384917,-0.832657542,-0.204431377,1.976388127,2.154349275
1.321374917,-0.590008033,-0.194600234,1.722523073,1.831137479
1.331363917,-0.333923961,-0.157904059,1.328919505,1.379299081
1.341353917,-0.093902337,-0.126461461,0.987426909,0.999911021
1.351342917,0.104276028,-0.117209411,0.870496629,0.884520162
1.361331917,0.207153694,-0.111334714,1.045589747,1.071711711
1.371321917,0.173340416,-0.080250988,1.373412724,1.386632478
1.381310917,-0.011881542,0.023067997,1.747500624,1.747693261
1.391300917,-0.309170066,0.149294545,2.168407765,2.195419601
1.401289917,-0.645885195,0.269761148,2.693356753,2.78282399
1.411279917,-0.982546384,0.220902545,3.131105044,3.289074966
1.421268917,-1.231930862,0.003897754,3.119253323,3.35371587
1.431257917,-1.422335354,-0.31026218,2.606601614,2.985577407
1.441247917,-1.494189302,-0.667303546,1.937081974,2.535780405
1.451236917,-1.320866135,-1.030133437,1.233460202,2.080213045
1.461226917,-0.843717989,-1.436752102,0.492161896,1.737337037
1.471215917,-0.273552483,-1.669210061,-0.934984986,1.932689864
1.481205917,0.269664596,-1.391604727,-3.870435762,4.121838874
1.491194917,0.580264379,-1.478060342,-4.240656314,4.52819336
1.501184917,0.785930103,-1.476563309,-3.520618485,3.897778835
1.511173917,1.110494572,-1.425889291,-2.35918604,2.971887823
1.521162917,1.34279948,-1.275322173,-1.297783082,2.261370827
1.531152917,1.23409287,-0.963476859,-0.584543225,1.67121622
1.541141917,1.048366517,-0.600690421,-0.512558153,1.312485122
1.551131917,0.898922575,-0.420715937,-0.846614261,1.304538004
1.561120917,0.840051273,-0.214869881,-1.31344368,1.573845452
1.571110917,0.706917263,0.319109894,-1.952866532,2.101249826
1.581099917,0.269950744,0.016375073,-2.266222327,2.282302606
1.591089917,-0.00902854,-0.662287366,-1.861334803,1.975670347
1.601078917,-0.539241556,-1.121051354,-1.509686762,1.956193169
1.611067917,-0.535893002,-0.955769937,-1.441547404,1.810728141
1.621057917,-0.231147744,-0.604598444,-1.596419097,1.722649845
1.631046917,-0.025933425,-0.47373816,-1.836851342,1.897135535
1.641036917,0.175430722,-0.513771122,-1.98841351,2.06119504
1.651025917,0.337340416,-0.613262629,-2.112024819,2.224980549
1.661015917,0.346335699,-0.708022752,-2.190176949,2.327685482
1.671004917,0.281910639,-0.708677494,-2.284155153,2.4081242
1.680993917,0.154763373,-0.679321694,-2.266535738,2.371205161
1.690983917,-0.018623309,-0.619080535,-2.161382335,2.248372998
1.700972917,-0.167209391,-0.579999573,-2.010332968,2.098999077
1.710962917,-0.374039807,-0.563855484,-1.708762236,1.837853956
1.720951917,-0.494298907,-0.503768911,-1.36007464,1.532291601
1.730941917,-0.60653146,-0.360017526,-1.093707654,1.301418251
1.740930917,-0.761623155,-0.194970874,-0.886105771,1.184595673
1.750920917,-0.937746187,0.050805918,-0.812309232,1.241690557
1.760909917,-1.089389486,0.361288857,-0.771269379,1.382807125
1.770898917,-1.174318977,0.672832454,-0.663632664,1.507360901
1.780888917,-1.158021472,0.948045619,-0.458024681,1.565116875
1.790877917,-1.066270911,1.178068651,-0.144316299,1.595495721
1.800867917,-0.926472755,1.331430446,0.185165532,1.632588458
1.810856917,-0.748851301,1.416795702,0.521347103,1.685197654
1.820846917,-0.505150754,1.480490591,0.76249037,1.740235972
1.830835917,-0.295012203,1.494753704,1.065447477,1.859166254
1.840825917,-0.042831001,1.467241824,1.451967727,2.064665431
1.850814917,0.086721956,1.369747104,1.621639307,2.12448626
1.860803917,0.105730669,1.159567403,1.687391832,2.050138222
1.870793917,0.04078009,0.966849387,1.73508757,1.986703206
1.880780208,-0.046618389,0.776118987,1.814199813,1.973792015
1.890770208,-0.137322737,0.581318413,1.91274937,2.003845998
1.900759208,-0.200598089,0.367677379,1.980414519,2.024220323
1.910749208,-0.237035598,0.057028881,2.024411893,2.039039402
1.920738208,-0.250126344,-0.289559162,1.972068788,2.008846187
1.930728208,-0.332966187,-0.676859943,1.593662719,1.763169512
1.940717208,-0.440568404,-0.963075594,1.255193133,1.64229258
1.950706208,-0.535573817,-1.17533537,1.239299816,1.790004631
1.960696208,-0.631525749,-1.263768659,1.437756654,2.01570836
1.970685208,-0.716514005,-1.253142953,1.542849246,2.112851953
1.980675208,-0.769976706,-1.191784391,1.520320508,2.079564525
1.990664208,-0.762702185,-1.140270641,1.524582544,2.050922644
2.000654208,-0.721544804,-1.14947562,1.575036998,2.079101405
2.010643208,-0.711854067,-1.157092349,1.694820719,2.172099488
2.020633208,-0.671247054,-1.09975141,1.86168856,2.264047275
2.030622208,-0.565444757,-0.989955025,1.978130012,2.28314193
2.040611208,-0.542449266,-0.935124807,1.988229908,2.263132293
2.050601208,-0.549917476,-0.886953764,1.780109961,2.06346497
2.060590208,-0.578555676,-0.834621841,1.378003957,1.711787135
2.070580208,-0.669683363,-0.819703401,0.86517157,1.367081313
2.080569208,-0.71901676,-0.828530212,0.283742571,1.133118379
2.090559208,-0.727939319,-0.887642639,-0.390799243,1.212653765
2.100548208,-0.708462974,-0.974613613,-1.052162603,1.599636716
2.110538208,-0.702978871,-1.034308349,-1.645025831,2.066417924
2.120527208,-0.683115002,-1.135285743,-2.129859411,2.508350242
2.130516208,-0.692177894,-1.228195807,-2.444836054,2.822197461
2.140506208,-0.668885072,-1.286774383,-2.55439358,2.937366527
2.150495208,-0.620860135,-1.335527882,-2.511536413,2.911514586
2.160485208,-0.553421858,-1.350845687,-2.407682261,2.815669316
2.170474208,-0.429993422,-1.308304562,-2.184955385,2.582747608
2.180464208,-0.310823805,-1.252660704,-1.799413374,2.214420639
2.190453208,-0.13210702,-1.180136153,-1.36995468,1.812994603
2.200443208,0.075274131,-1.031350096,-0.843650308,1.334576733
2.210432208,0.213225589,-0.869853581,-0.329369565,0.954250866
2.220421208,0.209572687,-0.647241091,0.015955297,0.680511802
2.230411208,0.0651909,-0.421338373,0.076528358,0.433165635
2.240400208,-0.130714506,-0.221024386,-0.110175576,0.279422116
2.250390208,-0.328875913,-0.122541487,-0.410748773,0.540268764
2.260379208,-0.523958177,-0.133410438,-0.669426085,0.860500901
2.270369208,-0.679833837,-0.234934401,-0.779237965,1.060462175
2.280358208,-0.884859876,-0.369675957,-0.813552935,1.257579298
2.290348208,-1.107389701,-0.500744073,-0.752101622,1.429235259
2.300337208,-1.265626758,-0.610633136,-0.660566384,1.552749776
2.310327208,-1.371514571,-0.741528686,-0.691053767,1.705424381
2.320316208,-1.397893115,-0.849852669,-0.815170859,1.82780148
2.330305208,-1.276497024,-0.876723694,-0.960380613,1.822201968
2.340295208,-1.036800359,-0.774739263,-1.001233939,1.636351219
2.350284208,-0.789979446,-0.583959965,-0.773375546,1.250274571
2.360274208,-0.508325939,-0.307791877,-0.432549532,0.735003535
2.370263208,-0.191632553,-0.06125967,-0.182903829,0.271899969
2.380253208,0.103008936,0.115887867,-0.112874066,0.191784759
2.390242208,0.250576726,0.361845731,-0.095905446,0.450465186
2.400232208,0.306735724,0.59792297,0.031576719,0.672752385
2.410221208,0.241520266,0.863478801,0.241981173,0.928699395
2.420211208,0.162946697,0.999308451,0.491046247,1.125297926
2.430200208,0.08253608,1.008930044,0.656610743,1.206602547
2.440189208,-0.000385185,1.025501492,0.697708483,1.24034293
2.450179208,-0.037879432,1.005503868,0.70866558,1.230723277
2.460168208,-0.010817787,0.950313169,0.813861083,1.251232195
2.470158208,0.063318475,0.794925606,1.118267714,1.37347684
2.480147208,0.082056024,0.579334672,1.434259434,1.549019683
2.490137208,0.128442716,0.417593524,1.567687633,1.627429383
2.500126208,0.184910886,0.376978472,1.612760895,1.66652408
2.510116208,0.222769122,0.44560081,1.813206371,1.880399827
2.520105208,0.271493093,0.504432862,2.290387115,2.360939252
2.530094208,0.270971814,0.514041884,2.840434692,2.899264393
2.540084208,0.315701552,0.387154746,3.288175875,3.325906922
2.550073208,0.409555649,0.095429045,3.649166012,3.673316637
2.560063208,0.481027481,-0.296735669,3.84605989,3.887366226
2.570052208,0.541557419,-0.713655667,3.793668838,3.898013866
2.580042208,0.55757879,-1.103324278,3.510184713,3.721507126
2.590031208,0.503092388,-1.316849391,3.039927657,3.350873681
2.600021208,0.381524389,-1.451944192,2.382972513,2.816426955
2.610010208,0.147758262,-1.574768026,1.646586453,2.283193769
2.620000208,-0.219030997,-1.596095892,1.112278996,1.957718376
2.629989208,-0.671628439,-1.501231104,0.851910669,1.85216937
2.639978208,-1.07936385,-1.311848559,0.653111769,1.82003515
2.649968208,-1.385585603,-1.070928364,0.438251737,1.805214561
2.659957208,-1.576840718,-0.75512317,0.331789142,1.779528502
2.669947208,-1.731194055,-0.568297979,0.164266999,1.829475088
2.679936208,-1.804564625,-0.531738775,-0.218097051,1.893875902
2.689926208,-1.810120795,-0.610017863,-0.81867568,2.078193676
2.699915208,-1.589413401,-0.838511701,-1.569705507,2.386066263
2.709905208,-1.067394599,-1.133964419,-2.299582447,2.777280318
2.719894208,-0.470478081,-1.309283678,-2.866932519,3.186671531
2.729884208,0.088043426,-1.359378237,-3.220928217,3.497147325
2.739873208,0.605092095,-1.296125104,-3.298945277,3.59570809
2.749862208,1.119534514,-1.139692936,-3.03517387,3.429947221
2.759852208,1.518853442,-0.906208572,-2.450132462,3.021800595
2.769841208,1.794911895,-0.599520064,-1.669773586,2.523742627
2.779831208,1.880124977,-0.356650626,-0.88420835,2.108054554
2.789820208,1.722751845,-0.193228715,-0.12793357,1.738268752
2.799810208,1.516972393,-0.203172928,0.363804987,1.573161959
2.809799208,1.201646963,-0.365789788,0.558644738,1.374715074
2.819789208,0.774435208,-0.580022816,0.568311355,1.122120383
2.829778208,0.307837778,-0.790177521,0.350338265,0.917541013
2.839768208,-0.136469336,-1.006245222,-0.062686245,1.017390236
2.849757208,-0.50562394,-1.161207766,-0.629045799,1.41412788
2.859746208,-0.745610335,-1.245388668,-1.261650798,1.923197972
2.869736208,-0.865681593,-1.265792381,-1.875872151,2.42291793
2.879725208,-0.896519955,-1.185337471,-2.398787477,2.821870711
2.889714917,-0.853768768,-1.033373452,-2.767329878,3.074881535
2.899703917,-0.754570608,-0.866149078,-2.932956355,3.149892698
2.909693917,-0.606152195,-0.687125607,-2.840106078,2.984252774
2.919682917,-0.525102039,-0.627490805,-2.562027705,2.689509773
2.929672917,-0.444669202,-0.630838701,-2.284197253,2.411067244
2.939661917,-0.404518419,-0.648468787,-2.026772414,2.16609172
2.949651917,-0.462150769,-0.63974021,-1.745418431,1.915551192
2.959640917,-0.499389931,-0.613176455,-1.589487222,1.775343713
2.969629917,-0.56557325,-0.542586968,-1.378957053,1.586126185
2.979619917,-0.653234853,-0.345494285,-1.081750683,1.310063592
2.989608917,-0.775395759,-0.047890121,-0.879877902,1.173761973
2.999598917,-0.81710044,0.278889858,-0.74036626,1.137354334
3.009587917,-0.788576553,0.552843057,-0.624691377,1.14792323
3.019577917,-0.711477068,0.741952171,-0.613929577,1.197331269
3.029566917,-0.613134502,0.850449889,-0.689715924,1.254952981
3.039556917,-0.391161039,0.851749359,-0.717746891,1.180527225
3.049545917,-0.086124224,0.831706785,-0.641665844,1.053987008
3.059535917,0.206783858,0.735786574,-0.485776151,0.905604724
3.069524917,0.492696624,0.591089585,-0.239570366,0.80593475
3.079514917,0.777799842,0.435620819,0.104795553,0.897619184
3.089503917,1.015922876,0.248347511,0.467469689,1.145558242
3.099492917,1.166828256,0.094171857,0.840146656,1.440903508
3.109482917,1.208850879,-0.122115042,1.320735158,1.794595745
3.119471917,1.055815066,-0.334082676,1.858462651,2.16338626
3.129461917,0.767759588,-0.4035791,2.37149092,2.525133672
3.139450917,0.440742358,-0.43939019,2.577066159,2.651148346
3.149440917,0.120317426,-0.394468809,2.479688383,2.513749471
3.159429917,-0.074983524,-0.360538221,2.47177827,2.499059454
3.169419917,-0.076688426,-0.439790505,2.402998057,2.444114659
3.179408917,-0.03095092,-0.627243687,2.235489362,2.322026117
3.189398917,-0.024492817,-0.844647258,2.084090915,2.248880573
3.199387917,-0.09385015,-1.058973366,2.020362697,2.283001942
3.209377917,-0.184178815,-1.15010902,2.018873411,2.330777218
3.219366917,-0.295868966,-1.132031914,1.988417019,2.307127421
3.229355917,-0.403703025,-1.033362489,1.971326777,2.262066185
3.239345917,-0.457893557,-0.799682316,1.900889463,2.112472264
3.249334917,-0.386104221,-0.469399124,1.719557365,1.823811816
3.259324917,-0.353918515,-0.183833463,1.505794271,1.557712888
3.269313917,-0.3464677,-0.045756436,1.365290356,1.409308794
3.279303917,-0.441781262,0.059991848,1.193230773,1.273801155
3.289292917,-0.612396291,0.123548889,1.070174366,1.239179857
3.299282917,-0.763192328,0.15588443,1.079000153,1.330790673
3.309271917,-0.890609297,0.145902283,1.11764791,1.436526799
3.319261917,-0.983395692,0.047501026,1.196935569,1.549831665
3.329250917,-1.057531954,-0.096016105,1.09470402,1.525113051
3.339240917,-1.123165488,-0.251868522,0.708260368,1.351507017
3.349229917,-1.157773696,-0.402144449,0.123063424,1.231789225
3.359218917,-1.115793904,-0.499457759,-0.394647295,1.28460133
3.369208917,-1.027993575,-0.576774907,-0.723509907,1.383078692
3.379197917,-0.888152297,-0.613935716,-1.067721459,1.518473141
3.389187917,-0.764218368,-0.597906452,-1.430380391,1.728441467
3.399176917,-0.625045719,-0.533592927,-1.822050285,1.998817351
3.409166917,-0.344143432,-0.399213971,-2.104190134,2.169198612
3.419155917,0.106977295,-0.255037713,-2.093507856,2.111696834
3.429145917,0.605572736,-0.09745145,-1.840122859,1.93965648
3.439134917,1.054126902,0.006946931,-1.298692909,1.672673027
3.449124917,1.378783683,-0.004954346,-0.738534912,1.564130048
3.459113917,1.618689094,0.018276203,-0.321967574,1.650500386
3.469103917,1.720231403,0.013387054,-0.033577636,1.720611156
3.479092917,1.676986127,0.030016974,0.013070281,1.677305673
3.489082917,1.607635664,0.023300131,-0.035172756,1.608189183
3.499071917,1.470807894,-0.021563947,-0.18322718,1.482333655
3.509060917,1.204867171,-0.093653099,-0.521849379,1.316359592
3.519050917,0.882497162,-0.172792532,-0.98275089,1.332087764
3.529039917,0.582810257,-0.200084557,-1.464340435,1.588708449
3.539029917,0.366540461,-0.239234882,-1.817242704,1.869212744
3.549018917,0.210613784,-0.384604849,-2.09333244,2.138765943
3.559008917,0.15054563,-0.590464262,-2.242078004,2.323408231
3.568997917,0.03200108,-0.660688664,-2.119864181,2.220666054
3.578987917,-0.177040534,-0.592335736,-1.774554521,1.879161708
3.588976917,-0.39486145,-0.390350177,-1.502734423,1.602029828
3.598966917,-0.647826909,-0.159300812,-1.243085303,1.410786137
3.608955917,-0.851736422,-0.048404421,-0.937287034,1.267400846
3.618945917,-0.950948031,-0.066455872,-0.50582333,1.079155124
3.628934917,-0.90428915,-0.17923397,0.088253195,0.926095195
3.638924917,-0.833867477,-0.274454123,0.58973146,1.057564764
3.648913917,-0.776538598,-0.28084111,0.755463771,1.119200354
3.658902917,-0.752782676,-0.242987551,0.765132726,1.100523874
3.668892917,-0.660447978,-0.193482612,0.828364516,1.076946993
3.678881917,-0.659695295,-0.137249354,0.590909674,0.896219566
3.688871917,-0.763968546,-0.06782814,0.191133201,0.790430576
3.698860917,-0.757381657,-0.061140606,0.253537025,0.801028197
3.708850917,-0.597261796,-0.09306867,0.924911987,1.104918827
3.718839917,-0.323814856,-0.169975599,1.847451759,1.883301826
3.728829917,-0.430998412,-0.057454668,1.181553884,1.259019559
3.738818917,-1.106942023,0.298608131,-0.797626289,1.396672887
3.748808917,-1.712950889,0.470271565,-0.735988449,1.92276756
3.758797917,-1.731732145,0.295501286,0.245892375,1.773888467
3.768787917,-1.002429402,0.401957192,0.392966221,1.149285318
3.778776917,0.057631181,0.745161854,1.157811849,1.378084112
3.788766917,0.321067724,0.734359854,2.439855396,2.568124458
3.798755917,-0.10856328,0.557666206,3.081686132,3.133618834
3.808745917,-0.633814276,0.393782565,3.149067691,3.236265219
3.818734917,-0.963055129,0.236993059,3.195412722,3.345788899
3.828723917,-0.979863681,0.305800754,3.35471485,3.508241534
3.838713917,-0.728510007,0.840923605,2.878988308,3.086495265
3.848702917,-0.334566058,1.355431074,1.834960937,2.305690674
3.858692917,0.109992705,1.597120762,0.79920796,1.789308942
3.868681917,0.52058459,1.667018963,-0.012431765,1.746457869
3.878671917,0.830002102,1.607065853,-0.304649876,1.834223458
3.888660417,0.955953832,1.575329652,-0.135180609,1.847643103
3.898650417,0.99302284,1.51311937,-0.022256257,1.810005506
3.908639417,0.90036216,1.416005304,-0.088066669,1.680321034
3.918629417,0.711106208,1.214222424,0.028385893,1.407413902
3.928618417,0.459082369,0.983620225,0.294688559,1.124769628
3.938608417,0.164151078,0.833295035,0.358854734,0.922010256
3.948597417,-0.099724263,0.643837646,0.167889349,0.672799136
3.958587417,-0.325221623,0.434504549,0.008794212,0.542808111
3.968576417,-0.487101788,0.338485228,-0.114886678,0.604184864
3.978566417,-0.552453523,0.345955192,-0.371376547,0.750206924
3.988555417,-0.527406938,0.335045018,-0.929518424,1.120007921
3.998544417,-0.281185219,0.26217921,-1.503694535,1.552063247
4.008534417,0.116446788,0.208673532,-1.76544339,1.781542832
4.018523417,0.423495667,0.129226974,-1.585664898,1.646323588
4.028513417,0.696151369,0.205568222,-1.11091601,1.327034063
4.038502417,0.904317217,0.273500004,-0.612594073,1.125994395
4.048492417,1.038769409,0.290231373,-0.265113342,1.110658012
4.058481417,1.126077548,0.151898603,-0.171628643,1.14916501
4.068471417,1.159763504,-0.061402708,-0.296218776,1.19856883
4.078460417,1.011949546,-0.250956722,-0.364590268,1.104512211
4.088450417,0.779655602,-0.423466467,-0.184427614,0.906200999
4.098439417,0.558567079,-0.588200366,-0.015308595,0.811302167
4.108429417,0.352929166,-0.836294803,0.030684434,0.908234291
4.118418417,0.168977735,-1.075658688,-0.113971004,1.09479883
4.128408417,0.005470235,-1.22989954,-0.607961909,1.371969564
4.138397417,-0.191418837,-1.254776811,-1.189553459,1.739581401
4.148387417,-0.366966028,-1.231777665,-1.70503522,2.135201486
4.158376417,-0.421480095,-1.262332437,-2.203937786,2.5745816
4.168366417,-0.394197608,-1.386475842,-2.604887211,2.977103356
4.178355417,-0.360980928,-1.501396872,-2.785507118,3.184893986
4.188345417,-0.352852641,-1.595075553,-2.989701244,3.406917159
4.198334417,-0.470694355,-1.671806371,-3.109537005,3.561700451
4.208323417,-0.704761833,-1.734761588,-2.868264515,3.425350834
4.218313417,-0.928969297,-1.691209918,-2.268677573,2.978266756
4.228302417,-1.185006811,-1.587427541,-1.383724288,2.416373366
4.238292417,-1.481715875,-1.73286709,-0.21819353,2.290397062
4.248281417,-2.080173427,-4.079046875,0.745656236,4.639153815
4.258271417,-1.574856758,-2.494229239,-0.533138598,2.997597383
4.268260417,-0.079299354,-0.053362567,-1.35042381,1.353802208
4.278250417,0.737572314,0.026929352,-2.65912306,2.759650984
4.288239417,1.650203979,0.754720297,-4.481797827,4.8352133
4.298229417,2.03570886,1.353905681,-4.236898894,4.891674907
4.308218417,2.07636265,1.626446303,-1.534624552,3.051504866
4.318208417,1.696172888,1.609562176,1.223660853,2.639135985
4.328197417,1.45239472,1.380197102,1.707474094,2.632463151
4.338187417,1.754620486,1.532501136,1.282696681,2.659429179
4.348176417,1.502789387,1.722124147,1.736642345,2.870542484
4.358166417,0.775249871,2.114865396,2.744998192,3.55087075
4.368155417,0.342776426,2.528972225,3.390829593,4.243927606
4.378145417,0.783346145,2.992433063,3.686416869,4.812271413
4.388134417,0.916272872,2.961470886,4.079647384,5.123806063
4.398124417,0.506187904,2.771178516,4.600914381,5.394818783
4.408113417,0.001819873,2.698718357,4.918485433,5.610221301
4.418103417,-0.410107626,2.557027751,4.074984815,4.828258529
4.428092417,-0.703054811,2.297101181,2.963382926,3.814786792
4.438081417,-0.893692606,1.504037329,2.306185707,2.894703314
4.448071417,-1.046211599,0.40224049,2.016352676,2.306953453
4.458060417,-0.959332938,-0.751683107,1.887428003,2.246715746
4.468050417,-0.771663043,-2.24200506,1.305428317,2.706694226
4.478039417,-0.386146906,-3.637591157,0.972057502,3.784980138
4.488029417,-0.084232211,-4.5887817,1.252273033,4.757331217
4.498018417,-0.081495422,-5.150965465,2.274285638,5.631293092
4.508008417,-0.215616662,-5.108218811,3.664148918,6.290181019
4.517997417,-0.197456087,-4.436297718,4.017286829,5.988181679
4.527987417,0.154591611,-3.296471905,2.874450284,4.376424342
4.537976417,0.997640825,-2.150781918,1.182661346,2.649497676
4.547966417,1.870870735,-1.219551137,-0.041787711,2.23365362
4.557955417,2.536030984,-0.728987286,-1.081427917,2.851729642
4.567945417,2.671134995,-0.592422787,-1.785114008,3.266888266
4.577934417,2.88297377,-0.565997319,-2.355515158,3.765679538
4.587924417,3.124859049,-0.746225901,-3.610199583,4.832715406
4.597913417,3.230008358,-1.006811306,-4.619555304,5.725985872
4.607903417,3.381203029,-1.185120393,-4.774397176,5.969247244
4.617892417,3.220198485,-1.596538672,-3.998444177,5.376445838
4.627882417,2.676976948,-1.980480593,-2.487021376,4.156174237
4.637871417,1.853734007,-2.192483675,-1.022748184,3.047839938
4.647861417,1.009663285,-2.150869042,-0.022310051,2.376163993
4.657850417,0.414495084,-1.853365925,0.486861395,1.960562533
4.667840417,0.21187649,-1.247680922,0.514833305,1.366254977
4.677829417,0.121559813,-0.569784853,-0.24699516,0.632801846
4.687819417,0.200590779,-0.182319692,-1.407205537,1.433075209
4.697808417,0.189361348,-0.183756938,-1.740360589,1.760249787
4.707798417,0.3452813,-0.168399226,-1.462313206,1.511931674
4.717787417,0.188171293,-0.571981652,-1.275313402,1.410317595
4.727777417,-0.063145836,-1.065422626,-1.109985718,1.539863975
4.737766417,-0.238731363,-1.283333443,-0.890184204,1.579989021
4.747755417,-0.422545896,-1.08361156,-0.57429481,1.297140538
4.757745417,-0.776744493,-0.862830637,-0.41967104,1.234476608
4.767735417,-1.027035655,-0.315728888,-0.22230997,1.097227729
4.777724417,-1.274543908,0.138815531,-0.335776944,1.325321878
4.787713417,-1.359382914,0.38728799,-0.205292818,1.428306352
4.797703417,-1.516446728,0.671231998,-0.319481923,1.688855166
4.807692417,-1.507967242,0.781193858,-0.413047898,1.747809376
4.817682417,-1.180699752,0.825675967,-0.685451549,1.595505102
4.827671417,-0.951506147,0.734111201,0.431363132,1.276854477
4.837661417,-0.590866112,0.754860338,1.126244486,1.478973811
4.847650417,-0.60439116,0.888321281,0.216663314,1.096059471
4.857640417,-0.742939181,1.229090285,0.102621558,1.439844693
4.867629417,-0.874554012,1.66183833,0.322704324,1.90543681
4.877619417,-0.923895156,2.011197186,0.594171835,2.291623126
4.887608167,-0.956506248,2.2153229,0.664105704,2.50271775
4.897598167,-0.814333099,2.421097528,0.69961409,2.648454552
4.907587167,-0.62535489,2.480877122,0.71395731,2.656229485
4.917577167,-0.516783497,2.227875118,0.496064912,2.340207922
4.927566167,-0.46693116,2.042107322,0.143762568,2.099736817
4.937556167,-0.660320363,2.14361674,-0.234786758,2.255269503
4.947545167,-0.90715297,2.434303465,-0.362775877,2.623045216
4.957535167,-1.433582473,2.816028706,-0.01375499,3.159962908
4.967524167,-2.061526364,3.13778695,0.323376753,3.768311348
4.977514167,-2.515177182,3.218021859,0.722355666,4.147719692
4.987503167,-2.880362989,3.152822773,0.995007239,4.384839996
4.997493167,-2.963827607,2.946076337,1.184045382,4.34345523
5.007482167,-2.975251312,2.484185477,1.637518006,4.207702826
5.017472167,-2.982672013,1.946407698,2.069435454,4.119150199
5.027461167,-3.123794271,1.598063626,2.438585381,4.273007917
5.037451167,-3.403671833,1.539568665,2.794317702,4.665132907
5.047440167,-3.431720049,1.718440547,2.809142733,4.756156358
5.057430167,-3.054453894,2.11017476,2.746197456,4.617805385
5.067419167,-2.545026925,2.45801831,2.754595812,4.484062237
5.077409167,-2.016059877,2.552470138,2.57792453,4.150336868
5.087398167,-1.313802991,2.55592058,2.389840068,3.737665563
5.097388167,-0.477375311,2.523472627,2.054908047,3.289140977
5.107377167,0.1446186,2.362100584,1.272192743,2.686802576
5.117367167,0.565366806,1.904339612,0.731867917,2.117021406
5.127356167,0.596610124,1.381459954,0.461825371,1.574057788
5.137346167,0.275352402,0.819386409,-0.065075417,0.866860913
5.147335167,-0.069306316,0.063563912,0.053049449,0.107972128
5.157325167,-0.410735617,-0.696502202,0.530359417,0.967005778
5.167314167,-0.712044101,-1.334415596,0.837539383,1.728914111
5.177304167,-0.973390083,-2.411402845,1.283404779,2.899910302
5.187293167,-1.181125721,-4.174999392,2.439611567,4.977688468
5.197283167,-0.908990311,-5.660123463,4.035601478,7.010659048
5.207272167,-0.318214393,-6.700643089,3.914738946,7.766920833
5.217262167,0.551347851,-7.027008939,2.345338663,7.428556558
5.227251167,2.027084071,-6.304280806,0.676867837,6.656664058
5.237241167,3.385389344,-4.563718488,-0.929535381,5.757814122
5.247230167,4.202692097,-2.596509905,-1.803193599,5.258896434
5.257220167,4.129020689,-1.515602829,-1.701442691,4.716012194
5.267209167,3.77758227,-0.605200269,-1.698836002,4.185981239
5.277199167,3.636562924,0.807592575,-1.458413113,4.000470532
5.287188167,3.042201639,1.410188786,-0.918332115,3.476630135
5.297178167,2.518516527,2.017241599,-1.074472069,3.400982122
5.307167167,1.86960452,1.732236321,-1.747450338,3.090250219
5.317157167,1.273720328,1.036718937,-2.238321753,2.776190537
5.327146167,0.866186135,0.29185339,-2.428384328,2.59470755
5.337136167,0.480482594,-0.486757899,-2.752812996,2.836507741
5.347125167,-0.188009764,-1.354393193,-3.299428257,3.571548042
5.357115167,-0.866105004,-2.027296033,-3.348512124,4.009064794
5.367104167,-1.462339957,-2.816756684,-3.104239427,4.439466048
5.377094167,-1.892899681,-3.496883467,-2.884544333,4.912418874
5.387083167,-2.164215896,-3.744526498,-2.848309137,5.17862666
5.397073167,-2.103738876,-3.724042532,-2.697473778,5.056735589
5.407062167,-1.829169708,-3.537033373,-2.538420741,4.722292533
5.417052167,-1.356265471,-2.975999756,-2.460289661,4.09256103
5.427041167,-0.993755131,-2.431614915,-2.532340806,3.648705293
5.437031167,-0.653063456,-1.941617659,-2.751842943,3.430599159
5.447020167,-0.436355229,-1.504983554,-2.77362616,3.185652753
5.457010167,-0.394932274,-0.966774981,-2.887322345,3.070383639
5.466999167,0.021502003,-0.116461333,-3.120123389,3.12237018
5.476989167,0.591257729,0.641187834,-3.027571321,3.150697644
5.486978167,1.100064309,1.203053218,-2.734483729,3.183532597
5.496968167,1.515746524,1.591168589,-2.07156501,3.020047449
5.506957167,1.892042187,1.712235482,-1.261430358,2.846538342
5.516947167,1.916436625,1.820462473,-0.020828952,2.643340084
5.526936167,1.417467693,2.099596708,1.212279832,2.808405845
5.536926167,0.629999553,1.846634318,2.375160633,3.073816158
5.546915167,-0.004850923,1.299131889,2.689060219,2.986438022
5.556905167,0.06229989,1.382290551,4.528998306,4.735655614
5.566894167,0.516344225,1.661618913,5.091290537,5.380411518
5.576884167,0.442539135,1.434525629,6.030115973,6.214177606
5.586873167,-0.307750508,1.355793309,7.260516327,7.392427423
5.596863167,-0.948152623,1.424337294,7.470727238,7.664169596
5.606852167,-1.253948261,1.561995661,6.738990884,7.030378
5.616842167,-1.297352142,1.217989931,5.318849552,5.608634647
5.626831167,-1.105588247,0.462955053,3.996609321,4.172473944
5.636821167,-0.5030288,-0.321600662,3.141937596,3.198161475
5.646810167,0.160265164,-1.930325077,2.827524624,3.427351066
5.656800167,0.656401851,-4.060176741,3.002610142,5.092304608
5.666789167,1.027421791,-5.351561215,3.320793983,6.38141643
5.676779167,1.019178898,-5.520462717,2.839092756,6.290841113
5.686768167,0.711895144,-4.993721557,1.296014884,5.208042268
5.696758167,0.621643078,-3.846997198,-0.801674316,3.978505909
5.706747167,0.728603708,-2.473339477,-2.764594551,3.780377568
5.716737167,1.038380277,-1.469337027,-3.458840312,3.898815359
5.726726167,1.409391519,-0.938589063,-3.704133933,4.072829738
5.736716167,1.867977532,-0.522430738,-3.810797086,4.276031849
5.746705167,2.319532854,-0.30477486,-3.77391285,4.440218303
5.756695167,2.520235316,-0.388932812,-3.598794004,4.410688502
5.766684167,2.501264317,-0.570405827,-3.173968644,4.081147258
5.776674167,2.04836165,-0.852138711,-2.696099682,3.491543975
5.786663167,1.462871615,-1.154798779,-2.123377188,2.82529366
5.796653167,0.787824893,-1.69249572,-1.260646246,2.252651501
5.806642167,0.142877153,-1.971501608,-0.653826883,2.081999536
5.816632167,-0.045323523,-1.555431869,-0.023282443,1.556266235
5.826621167,-0.060203225,-0.897265328,-0.049216599,0.900628542
5.836611167,-0.014400157,-0.307995945,-0.812457751,0.86899739
5.846600167,-0.087701072,-0.06946346,-1.712745944,1.716396026
5.856590167,-0.091875399,0.103883972,-1.700317687,1.70596401
5.866579167,-0.115897442,0.038448367,-1.800047797,1.804184737
5.876569167,-0.100420959,-0.070184714,-1.566038718,1.570823838
5.886558542,-0.163990718,0.011670458,-1.207030202,1.218175301
5.896548542,-0.445210216,-0.38854251,-1.415109218,1.533529106
5.906537542,-0.635813951,-0.854531391,-0.906234226,1.398479085
5.916527542,-0.691725392,-0.764738624,-0.767440622,1.285408219
5.926516542,-0.900617903,-0.476829619,-0.538932604,1.152791154
5.936506542,-0.943009777,0.309074464,0.164941183,1.005982136
5.946495542,-0.900938549,1.029052652,0.702504954,1.53758019
5.956485542,-0.958647571,1.301188208,0.50902702,1.694462872
5.966475542,-1.04735853,1.230531916,0.435511732,1.67357078
5.976464542,-0.875821834,1.17785552,0.355641689,1.510261077
5.986454542,-0.69660102,1.059599968,0.064964905,1.269734426
5.996443542,-0.496062208,0.787479323,0.004360853,0.93070963
6.006433542,-0.203804482,0.398267014,-0.243040103,0.509137873
6.016422542,0.150855825,0.133758859,-0.315352035,0.374293759
6.026412542,-0.021487787,0.085483662,0.282921038,0.296333419
6.036401542,-0.251595311,0.907080318,-0.595499738,1.1138738
6.046391542,-0.578971852,1.489261853,-0.987521634,1.878379155
6.056380542,-0.338661083,1.554756516,-0.254989473,1.611514438
6.066370542,0.138032187,1.607932557,0.380173683,1.658020513
6.076359542,0.067450922,1.843276262,0.627760581,1.948409698
6.086349542,-0.227069384,2.044529239,0.445894632,2.104871098
6.096338542,-0.412899818,2.233060429,0.031421183,2.271130209
6.106328542,-0.547798299,2.818394782,-0.070943098,2.87201411
6.116317542,-0.946258198,3.440409596,-0.090209089,3.569308119
6.126307542,-1.62716668,3.727600271,0.157713439,4.070325382
6.136296542,-2.418960225,3.64272355,0.481566156,4.399171444
6.146286542,-2.642200048,3.566562982,0.567076423,4.474725496
6.156275542,-2.516762069,3.431184152,0.66041728,4.306189381
6.166265542,-3.180486242,2.795683027,0.836809065,4.316432061
6.176254542,-3.798606226,1.974905857,1.251738013,4.460550466
6.186244542,-2.700457904,2.004874884,1.996871508,3.911456508
6.196233542,-2.508267819,1.722629785,2.177793716,3.741877376
6.206223542,-2.472706808,1.561937481,2.267132154,3.70051562
6.216212542,-1.956780074,1.520954931,2.521290153,3.535420229
6.226202542,-1.618926199,1.345736975,2.771470876,3.480370794
6.236191542,-1.48788308,0.931229319,2.820197479,3.321821476
6.246181542,-1.221790694,0.352252935,2.710606039,2.994034023
6.256170542,-0.766632026,-0.127940002,2.250829532,2.381244819
6.266160542,-0.639606674,-0.217564223,1.122085946,1.309773935
6.276149542,-0.944718407,-0.587928178,1.731098015,2.057875785
6.286139542,-1.201315134,-1.186673413,2.569423848,3.074620424
6.296129542,-1.107203832,-1.304337226,3.188249883,3.6183053
6.306118542,-1.023587552,-1.297995336,3.313707157,3.703130904
6.316108542,-0.755609586,-1.269140204,2.888221647,3.243992445
6.326097542,-0.604255432,-1.715740449,1.310724725,2.242072527
6.336087542,-0.276524714,-2.926207498,-0.130520378,2.942140685
6.346076542,0.205292306,-4.69813048,0.979239637,4.803486776
6.356066542,0.855038637,-5.580946316,1.067494587,5.746094112
6.366055542,2.046441571,-5.115226114,-0.239555163,5.514603157
6.376045542,3.741850812,-3.849301879,-0.505668379,5.392056469
6.386034542,5.207986928,-2.294826468,-0.526256425,5.715444181
6.396024542,5.233490143,-1.68000329,0.102771832,5.497489626
6.406013542,4.863880918,-0.470132876,0.229564025,4.891938485
6.416003542,4.634446408,0.689202173,0.084438472,4.686173599
6.425992542,3.990066871,0.961373908,-0.48267011,4.132534799
6.435982542,3.111895187,0.433637662,-0.692519664,3.217377311
6.445971542,2.255125335,-0.015343934,-1.073150014,2.497494077
6.455961542,1.230432367,-0.685227309,-2.150315895,2.570478306
6.465950542,0.176153365,-1.446533617,-2.808810611,3.164317709
6.475940542,-0.626774155,-2.01524916,-3.353929569,3.962690825
6.485929542,-1.281889473,-2.647145331,-3.857311102,4.850718293
6.495919542,-1.956172986,-3.480112191,-3.691741928,5.4375318
6.505908542,-2.094250306,-3.918944556,-2.738228871,5.219378136
6.515898542,-1.609670641,-3.590911957,-1.829093841,4.339501415
6.525887542,-1.111752601,-3.221308871,-1.670099276,3.795004121
6.535877542,-0.583617611,-2.976055304,-1.718150525,3.48562131
6.545867542,-0.183703728,-2.682943447,-1.736569839,3.201188436
6.555856542,-0.082556253,-2.360410154,-2.007098288,3.099483049
6.565846542,-0.034941937,-2.019802095,-2.369614549,3.113823141
6.575835542,0.657135092,-1.231696828,-3.071557585,3.373924955
6.585825542,2.547612564,0.583113142,-6.645987995,7.141393922
6.595814542,2.701568583,0.441000184,-4.158033403,4.978171929
6.605804542,2.019197785,-0.672155127,-1.246808226,2.466471764
6.615793542,1.405446256,-0.698849201,-2.012510471,2.552228003
6.625783542,0.987468131,-0.446111929,-1.705943293,2.020977903
6.635772542,1.049179353,0.12874414,-0.931997643,1.409245179
6.645762542,1.295069682,0.652608543,0.614660479,1.575090758
6.655751542,1.121726196,0.718855888,1.938538515,2.352223421
6.665741542,0.698804251,0.503310928,2.873769668,3.000033563
6.675730542,0.200885772,0.310410041,3.09782854,3.119815884
6.685720542,-0.14335297,0.249897352,3.202785476,3.215716649
6.695709542,-0.034701909,0.319684164,2.96220822,2.979610667
6.705699542,0.041150073,0.16399715,1.842792113,1.850532671
6.715688542,0.030512964,0.066340024,1.503532568,1.505304694
6.725678542,0.137368637,0.080494963,1.938668908,1.945195804
6.735667542,0.005251677,-0.053528911,2.77110718,2.77162911
6.745657542,-0.530907593,-0.426654662,3.718836756,3.780693573
6.755647542,-1.322601589,-0.723201758,4.412977268,4.663331868
6.765636542,-2.040106113,-0.81409234,4.393511887,4.911998167
6.775626542,-2.29260935,-0.699427418,3.105258012,3.922739307
6.785615542,-2.393495454,-0.608268156,2.230174828,3.327535184
6.795605542,-2.058128108,-0.409719079,1.668256234,2.680828211
6.805594542,-1.575743927,-0.25493831,1.206743104,2.001047571
6.815584542,-1.156223745,-0.22109945,0.744917148,1.39306851
6.825573542,-0.787768468,-0.438169547,0.611704711,1.089382561
6.835563542,-0.349468491,-0.624875857,0.907903606,1.156238306
6.845552542,-0.302461848,-0.754207496,1.267972807,1.506010344
6.855542542,-0.595781574,-0.983944746,1.856636565,2.184079275
6.865531542,-0.860076598,-1.109983672,2.267183025,2.666817274
6.875521542,-0.801893294,-0.973027336,2.008502789,2.371476018
6.885510208,-0.031493688,-0.655482523,1.170873359,1.34223456
6.895500208,0.949336392,-0.390042906,0.259949666,1.058747789
6.905489208,1.4958312,-0.079034621,-0.555123544,1.597472879
6.915479208,0.901004184,-0.016839396,-1.2744562,1.560874982
6.925469208,0.082094615,-0.062657593,-1.637333819,1.640587557
6.935458208,0.021550498,0.058219264,-1.720315749,1.721435501
6.945448208,0.649078067,0.059035974,-1.732197291,1.850755262
6.955437208,1.718713027,-0.055300627,-1.824714276,2.50731227
6.965427208,2.589955176,-0.148918204,-1.956653774,3.249390471
6.975416208,2.881265214,-0.252898655,-1.850281227,3.433538638
6.985406208,2.728887067,-0.213808995,-1.682749143,3.213126761
6.995395208,2.407844814,-0.215031209,-1.466279372,2.827353934
7.005385208,2.130111426,-0.340888579,-1.295993249,2.516580659
7.015374208,2.006620278,-0.460664407,-1.471350662,2.530535399
7.025364208,1.906921743,-0.698288527,-1.642252496,2.611694979
7.035353208,1.702672653,-1.030257179,-1.579685535,2.540852299
7.045343208,1.394634316,-1.329020955,-1.308488749,2.328828972
7.055332208,1.039104016,-1.315795138,-0.938251825,1.921293962
7.065322208,0.598266348,-1.066648495,-0.354826587,1.273406275
7.075311208,0.06860889,-0.794003938,0.138288989,0.808871608
7.085301208,-0.212854437,-0.654856286,0.364044138,0.778891456
7.095291208,-0.268885966,-0.566834933,0.348470664,0.717658211
7.105280208,-0.344460936,-0.410860747,0.250906947,0.591957926
7.115270208,-0.477815167,-0.129643588,0.118482715,0.509070671
7.125259208,-0.452390597,0.354350624,-0.153188279,0.594716963
7.135249208,-0.424913068,1.058668215,-0.446745987,1.225116926
7.145238208,-0.392903948,1.688469766,-0.49339215,1.802425998
7.155228208,-0.29206696,1.882597033,-0.093979374,1.907434618
7.165217208,-0.143642115,1.834267749,0.290592585,1.862690335
7.175207208,-0.121067477,1.812955818,0.323601871,1.845585084
7.185196208,-0.133177938,1.970419874,0.11230864,1.978106183
7.195186208,-0.001242241,2.146123734,-0.072181538,2.147337607
7.205175208,0.220027509,2.133552805,-0.141756388,2.149547522
7.215165208,0.300414445,2.022371215,0.050941527,2.045196619
7.225154208,0.144358107,1.860591037,0.139804003,1.871412149
7.235144208,-0.176670697,1.717930085,0.021086814,1.727119268
7.245134208,-0.681089234,1.70345121,-0.105894245,1.837618611
7.255123208,-1.148908294,1.663110099,0.0248226,2.021519634
7.265113208,-1.307100036,1.441319655,0.01606581,1.945808562
7.275102208,-1.26319417,1.095282894,-0.180171425,1.681596228
7.285092208,-1.584532,0.803817028,-0.494086214,1.844175875
7.295081208,-2.210248686,0.635467211,-0.860937601,2.455652944
7.305071208,-2.867949058,0.441506297,-1.015432148,3.074274232
7.315060208,-2.926001092,0.101944451,-1.076721493,3.119487816
7.325050208,-2.58086334,-0.236003564,-1.163481309,2.84081714
7.335039208,-2.453861817,-0.337380835,-1.222969127,2.76241147
7.345029208,-2.452975671,-0.380134506,-0.894877764,2.638635651
7.355018208,-2.422999043,-0.224612018,-0.191549522,2.440915021
7.365008208,-2.21624676,0.075050767,0.709423379,2.328231915
7.374997208,-1.73242621,0.421176113,1.456168951,2.3019813
7.384987208,-1.308289652,0.796380832,2.024856282,2.538875185
7.394976208,-0.983177737,0.987755522,2.182604805,2.589606759
7.404966208,-0.550217438,0.730164623,1.683050274,1.915342745
7.414956208,-0.263554475,0.371197037,0.976299073,1.077222391
7.424945208,-0.67410035,-0.099358812,0.920700238,1.145413629
7.434935208,-1.772714403,-0.676784806,2.111860512,2.839103529
7.444924208,-2.64296691,-1.336136724,3.186520861,4.350224205
7.454914208,-3.209079127,-1.710222285,3.460307963,5.01963946
7.464903208,-3.665906591,-1.717433072,1.990424953,4.511123915
7.474893208,-3.881584064,-1.374807284,0.098653638,4.119043876
7.484882208,-3.572537374,-0.830968282,-0.742407523,3.742285465
7.494872208,-2.75590208,-0.353976987,-0.90517588,2.922266134
7.504861208,-1.548852582,0.165973216,-0.967615373,1.833785958
7.514851208,-0.205574654,0.84372866,-1.485505602,1.720716677
7.524841208,1.128201841,1.404148613,-1.848000813,2.580616152
7.534830208,2.077684706,1.668462056,-1.191173723,2.918806983
7.544820208,2.92395632,1.969386671,-0.186654818,3.530275406
7.554809208,3.689601848,2.366761107,0.846231853,4.464395623
7.564799208,4.007590976,2.697698895,2.059540211,5.251673128
7.574788208,4.220005411,2.803619453,3.102761544,5.941031636
7.584778208,4.807426635,2.757272083,3.688780314,6.657401925
7.594767208,4.504858661,2.192160324,3.345729434,6.024385768
7.604757208,3.692814015,1.063450652,2.231409467,4.44375864
7.614746208,2.670978289,-0.086656905,1.744814413,3.191553192
7.624736208,1.421959816,-0.680991878,0.923263072,1.8270562
7.634725208,1.004573576,-0.616553223,-0.191524964,1.194147293
7.644715208,1.811071845,-0.786444073,-0.179611847,1.982608364
7.654704208,2.032253887,-1.680250043,0.173907303,2.642638798
7.664694208,1.152109937,-1.905714585,-0.601518862,2.306714184
7.674684208,-0.162835016,-1.956088933,-1.286568123,2.346924943
7.684673208,-0.748292453,-2.132450897,-1.385841565,2.651008349
7.694663208,-0.474302745,-2.078199846,-1.887553133,2.847232783
7.704652208,0.514762554,-1.44958908,-2.559347926,2.986059409
7.714642208,1.060520028,-0.723743795,-3.179317092,3.428784767
7.724631208,1.313132608,0.344334344,-2.99696524,3.290088758
7.734621208,1.77821254,1.189958671,-2.424417577,3.233549453
7.744610208,2.343933578,1.931002623,-1.62604343,3.444824086
7.754600208,3.433992569,2.329371672,-1.467173411,4.401235641
7.764589208,4.054746432,2.660935696,-1.470366576,5.0678916
7.774579208,3.739812473,2.542048938,-1.059403794,4.644410247
7.784568208,2.285367866,0.809807208,0.23691266,2.436148929
7.794558208,0.495379618,-1.618851939,0.87499533,1.905701812
7.804548208,-0.403596459,-2.401733889,0.401522159,2.468286008
7.814537208,-0.159618462,-1.133841773,-0.721718904,1.35349673
7.824527208,0.10442484,0.024656539,-0.886703503,0.893171649
7.834516208,-0.076541807,0.722539853,-0.699097196,1.008295283
7.844506208,-0.280559932,1.060270936,-0.398550312,1.166932168
7.854495208,-0.835743118,1.073672755,-0.181663635,1.372676735
7.864485208,-1.506418753,1.071012856,0.287547501,1.870574661
7.874474208,-1.231046471,0.912959109,0.849951194,1.752537241
7.884464208,-1.869752455,0.52430404,1.817692355,2.659863618
7.894453333,-2.1208202,0.013622843,3.0879064,3.746095279
7.904443333,-2.072140961,-0.068064514,3.115763705,3.742510441
7.914433333,-2.431655846,0.232108149,2.515631803,3.506455149
7.924422333,-3.534575788,-0.97092782,1.460336262,3.945694975
7.934412333,-2.463779864,-2.05903852,1.351592669,3.483770025
7.944401333,-2.781104749,-2.304556673,1.289728543,3.83522161
7.954391333,-4.193305562,-1.966825005,0.271894358,4.639626998
7.964380333,-4.069113625,-1.594722819,0.265419298,4.378501338
7.974370333,-2.895856941,-1.623284129,-1.134795893,3.508390016
7.984359333,-1.280595776,-1.418190701,-3.58484664,4.062304253
7.994349333,-0.132587369,-1.395678921,-3.57483036,3.839910306
8.004338333,0.777805397,-1.677119443,-2.278070102,2.933822464
8.014328333,1.317094097,-2.065545301,-0.92564457,2.618784474
8.024317333,0.117255385,-3.783705182,-0.017464391,3.785561878
8.034307333,-1.034840811,-5.196646838,-0.862820916,5.368472203
8.044297333,-1.632347313,-5.661603393,-1.982745219,6.216879389
8.054286333,-2.067386005,-5.696114829,-1.940965109,6.36295172
8.064276333,-1.812317594,-5.234667188,-1.171123693,5.661957818
8.074265333,-0.70297507,-3.471249273,-1.066598209,3.698834574
8.084255333,0.969629738,-1.032499001,-0.700252022,1.580059781
8.094244333,2.542845329,0.395121505,0.599960542,2.64237318
8.104234333,3.960129712,1.108543795,2.64809755,4.891208165
8.114223333,8.712585796,2.662197526,9.35853531,13.06057541
8.124213333,7.27527353,2.116492676,10.44119173,12.90068335
8.134202333,2.907025123,0.18154669,7.001024498,7.582750047
8.144192333,2.366647671,-0.296970143,5.463994986,5.961916946
8.154182333,2.964426069,-0.623444751,4.860065317,5.726843822
8.164171333,1.848945723,-0.53946704,3.182605566,3.720027306
8.174161333,0.73929505,-0.343925623,1.318590399,1.550329851
8.184150333,0.379901202,-0.250901685,-1.37664638,1.449976494
8.194140333,0.719247871,0.027586579,-3.244662066,3.323538843
8.204129333,1.161047114,0.72360814,-3.119944464,3.406712873
8.214119333,0.950197102,0.899398246,-2.002720478,2.392212584
8.224108333,0.828624718,1.054602646,-0.521892064,1.439158431
8.234098333,1.357417665,1.536171141,0.74481716,2.181090804
8.244087333,0.976470104,1.549857134,0.790259528,1.995009052
8.254077333,-1.175013188,0.68801263,0.131988176,1.368005208
8.264067333,-1.517074134,0.578701857,-2.157787321,2.700454756
8.274056333,0.060865422,0.000849016,-1.168103095,1.169688061
8.284046333,0.740133248,0.084277673,1.205102814,1.41674724
8.294035333,0.736100716,0.453013033,0.010597347,0.864394225
8.304025333,0.568652832,0.233419095,0.000909827,0.61469614
8.314014333,1.287126532,0.257005593,0.719284708,1.496702066
8.324004333,1.151896221,0.327462788,-0.397582598,1.261811675
8.333993333,0.60267164,0.417488274,-0.566306344,0.926397561
8.343983333,-0.033821465,0.585445451,-0.75819442,0.958513978
8.353972333,-0.631966191,0.29532766,-1.607350466,1.752191546
8.363962333,-0.922986499,0.256159501,-1.60503263,1.869131218
8.373952333,-1.075158532,0.377566994,-1.146451805,1.616438816
8.383941333,-1.350871415,0.171724538,-0.3558709,1.407475397
8.393931333,-1.249625999,0.284127903,0.152191329,1.290525475
8.403920333,-0.613365905,0.742827938,0.208822782,0.98570687
8.413910333,-0.176052062,0.923285292,0.022855597,0.940198084
8.423899333,-0.059393093,1.097876719,-0.375821673,1.161939224
8.433889333,-0.205647452,1.285185841,-0.880529866,1.571409038
8.443878333,-0.550332043,1.490537131,-1.514559832,2.195098581
8.453868333,-1.089087185,1.504090977,-2.206659665,2.884050527
8.463858333,-1.442506932,1.313981624,-2.770637648,3.388776613
8.473847333,-1.450099834,1.181241642,-3.149286962,3.662803532
8.483837333,-1.03504751,1.392208014,-3.30118476,3.729260962
8.493826333,-0.740296386,1.670774045,-3.21520964,3.698256032
8.503816333,-0.817958519,1.667130645,-3.229075727,3.724957823
8.513805333,-0.885644133,1.472199678,-3.043590353,3.495022125
8.523795333,-0.568010515,1.179037242,-2.621008569,2.929581998
8.533784333,-0.256172073,0.834022867,-2.4331387,2.584836978
8.543774333,-0.049716536,0.495893004,-2.418838749,2.469648254
8.553763333,-0.176932945,0.036126437,-2.798422447,2.80424296
8.563753333,-0.018477201,-0.250013493,-3.422433794,3.431603302
8.573743333,0.076146535,-0.736283734,-3.791550976,3.863129668
8.583732333,-0.037382711,-1.264794261,-3.817910224,4.022131334
8.593722333,-0.314821984,-1.57417278,-3.808332485,4.132859681
8.603711333,-0.938611136,-1.365279247,-3.566078832,3.932161813
8.613701333,-1.643429541,-0.812806245,-3.373955698,3.839933815
8.623690333,-2.159681673,-0.445571866,-3.219910802,3.902638183
8.633680333,-2.601851921,-0.27639613,-3.009501085,3.987872242
8.643669333,-2.84718501,-0.116152015,-2.739215881,3.952626647
8.653659333,-2.696130087,0.343539707,-2.044194778,3.400863018
8.663648333,-2.539604217,0.437957622,-1.301196102,2.886954755
8.673638333,-2.140667697,0.19071337,-0.513441631,2.209627137
8.683628333,-1.160905319,-0.064018825,0.295476069,1.199627307
8.693617333,-0.094433702,-0.411153985,0.530344799,0.677665795
8.703607333,0.558521069,-0.9980092,0.235536371,1.167666703
8.713596333,0.519397934,-1.960163857,-0.727628685,2.154404805
8.723586333,0.584273961,-2.382952632,-1.463462183,2.856844566
8.733575333,1.01950181,-2.828505787,-1.416883264,3.323760989
8.743565333,1.358111145,-3.967772607,-0.808178905,4.270929464
8.753554333,2.114470709,-4.478650855,1.195931017,5.095051605
8.763544333,3.348218886,-4.372063715,1.881201303,5.819315182
8.773533333,3.873502627,-4.500999498,2.599315399,6.482241868
8.783523333,3.81549357,-4.170797875,3.725800205,6.770164936
8.793513333,2.275441632,-3.200646565,5.065182134,6.40919988
8.803502333,0.238804965,-1.942496495,5.543000225,5.878364733
8.813492333,-0.64037858,-0.321213284,5.567953802,5.613855381
8.823481333,-0.953065453,0.503088003,5.133214488,5.245123667
8.833471333,-1.497383636,0.278019317,4.191679451,4.459779043
8.843460333,-2.256938703,0.670468644,3.374235195,4.114457882
8.853450333,-1.769437038,1.575353333,3.513172055,4.237336834
8.863439333,-1.865502991,1.666105628,3.298605846,4.139663018
8.873429333,-1.38115356,1.80398882,2.305875366,3.237131759
8.883419333,-0.660218183,1.538463249,1.046755828,1.974450552
8.893408458,0.596486163,1.598408904,0.517056416,1.782709765
8.903398458,1.983026763,1.718612455,0.428804537,2.658927837
8.913387458,2.900451683,1.70396518,0.155987341,3.367558366
8.923377458,3.942560875,1.915266012,-0.12003252,4.384796227
8.933366458,4.669233541,1.905220495,-0.416604175,5.060154744
8.943356458,4.588825555,1.825917633,-0.623021705,4.977896264
8.953345458,4.523934032,1.671300294,-0.74962708,4.880693041
8.963335458,4.307687041,1.596977506,-0.805987515,4.664345685
8.973325458,4.639363039,1.53964848,-0.6246063,4.927914354
8.983314458,4.821300616,0.814434695,0.316098139,4.899812398
8.993304458,4.398127679,-0.169585041,1.457776059,4.636528573
9.003293458,3.976467125,-0.410105579,2.253208179,4.588836942
9.013283458,3.502889727,-0.284288117,2.629758635,4.389383402
9.023272458,2.771341068,0.003691932,2.656706405,3.839066797
9.033262458,2.015517986,0.344711489,2.066294037,2.90701046
9.043251458,1.284655498,0.763411306,1.284756947,1.970719916
9.053241458,0.344024149,1.20831659,0.741125228,1.458646016
9.063230458,-0.845268817,1.363926786,0.398272277,1.653298659
9.073220458,-2.11719785,1.340373616,-0.059265624,2.506519615
9.083210458,-3.15425768,0.991684851,-0.65874293,3.371457044
9.093199458,-3.294723002,0.893390817,-1.425192157,3.699259318
9.103189458,-2.801519425,0.996820461,-1.893881283,3.525471377
9.113178458,-2.989300417,0.935614731,-2.31151486,3.892864351
9.123168458,-3.317842308,0.588488926,-2.878006561,4.431401422
9.133157458,-4.092605691,0.111822737,-2.610227765,4.855431459
9.143147458,-4.801066326,-0.171309385,-1.237368773,4.960913853
9.153136458,-5.117738662,-0.97152599,-0.628631524,5.246931423
9.163126458,-4.857369166,-2.027493376,-1.56573554,5.491474518
9.173116458,-4.811326728,-3.570833203,-2.363555956,6.440971309
9.183105458,-4.536537413,-4.055741628,-2.720566479,6.66563529
9.193095458,-3.736960201,-3.659888052,-2.605939125,5.843848973
9.203084458,-2.50067404,-3.24445332,-1.699259048,4.434786276
9.213074458,-1.373438159,-3.156513535,-0.867860119,3.550083275
9.223063458,-0.739278678,-3.726194893,-0.07791561,3.799622637
9.233053458,0.163431432,-4.585417505,0.297921485,4.597990946
9.243042458,1.095307453,-5.785202422,0.232482955,5.892564281
9.253032458,1.390800881,-7.043726129,-0.103980159,7.180474688
9.263021458,1.735528742,-6.74615957,0.442264389,6.979851485
9.273011458,2.460218032,-4.764646944,1.914810806,5.69394711
9.283001458,3.254624259,-1.812646208,3.122504083,4.86089468
9.292990458,3.583784201,0.495910546,3.368356404,4.94320355
9.302980458,2.993463342,1.343940418,2.856689951,4.350594914
9.312969458,2.219186448,1.657627165,2.302912144,3.602210523
9.322959458,2.057610922,2.105684683,2.194930735,3.672246128
9.332948458,2.023869272,2.381494337,2.148019109,3.792301174
9.342938458,1.872252432,2.401492984,1.921105626,3.600436716
9.352927458,1.356390309,2.073198137,1.463098487,2.877256049
9.362917458,0.978984699,1.968417202,1.255748034,2.531793919
9.372907458,0.957116989,1.920016875,1.346822218,2.533074775
9.382896458,0.621477748,1.455135748,1.093150122,1.923182734
9.392886458,0.451998248,0.442372854,0.77542558,1.00064029
9.402875458,0.713658518,-0.309027686,0.454472205,0.900750563
9.412865458,0.696920863,-0.981269206,0.211816264,1.222069586
9.422854458,0.232291752,-0.64522329,0.298965505,0.748099542
9.432844458,0.635732382,0.562441919,1.238676649,1.501604613
9.442833458,0.960897799,1.405469499,1.437039493,2.227947844
9.452823458,1.573098646,1.620544124,0.656542038,2.351988532
9.462813458,1.983657385,1.52690038,0.526170325,2.55796337
9.472802458,2.066618558,1.075202386,-0.134326623,2.333455823
9.482792458,1.279815173,0.13552501,-0.909599884,1.575965055
9.492781458,0.924908771,-0.393947384,-1.057323647,1.458966782
9.502771458,0.597977203,-0.071354742,-0.823361346,1.020094183
9.512760458,0.108952339,0.091962084,-0.274585101,0.309393947
9.522750458,0.240284895,-0.101229336,-0.362125082,0.446227279
9.532739458,0.376322414,-0.161044014,-0.902753963,0.991220688
9.542729458,0.585291669,0.158238519,-0.853524062,1.046952287
9.552719458,0.842534367,0.510209327,-0.701273969,1.209116576
9.562708458,0.709769827,0.473599325,-0.725976116,1.120317298
9.572698458,0.299328032,0.452928833,-0.582777951,0.796474694
9.582687458,-0.21273223,0.348610997,-0.382628928,0.559633385
9.592677458,-0.516581622,0.353595749,-0.31313477,0.699957078
9.602666458,-0.80738383,0.512283919,-0.468219156,1.064674899
9.612656458,-1.02571243,0.813694437,-0.603540098,1.441681406
9.622645458,-1.174500972,1.099425647,-0.641120299,1.731826932
9.632635458,-1.245972951,1.323909026,-0.523662454,1.891931836
9.642625458,-1.429018575,1.293999349,-0.438923582,1.977165222
9.652614458,-1.282918875,1.218366784,-0.393160933,1.812422131
9.662604458,-0.873456489,1.237942677,-0.455730599,1.582124739
9.672593458,-0.621454943,1.35365966,-0.757201563,1.670914399
9.682583458,-0.824916413,1.869209248,-1.372353354,2.461256596
9.692572458,-1.126136312,2.582009979,-2.151099568,3.544317689
9.702562458,-1.156764905,3.050975386,-2.851081302,4.333038246
9.712551458,-0.943918069,3.018219284,-3.229122505,4.519719142
9.722541458,-0.52623713,2.77564228,-3.327774389,4.365225993
9.732531458,-0.329914233,1.967757052,-3.565494111,4.085787497
9.742520458,-0.061327937,0.988520338,-3.641761683,3.774037855
9.752510458,0.394151744,0.084134417,-3.698424711,3.720319817
9.762499458,0.521811664,-0.815550343,-4.20671849,4.316698997
9.772489458,0.234060534,-1.101154084,-4.582807893,4.719052111
9.782478458,-0.573518008,-1.100988607,-4.597347579,4.762006256
9.792468458,-1.601249774,-0.479455896,-4.349540241,4.659654397
9.802457458,-2.695289258,0.559276237,-4.137914304,4.969880167
9.812447458,-3.615865535,1.402791474,-3.617389319,5.303566061
9.822437458,-4.022959798,2.040039162,-2.812952778,5.315888322
9.832426458,-3.973705192,2.233039963,-2.016708187,4.984366795
9.842416458,-3.596101653,2.087574686,-0.684117215,4.214016082
9.852405458,-2.857884538,1.879648867,0.177853516,3.425232221
9.862395458,-2.080075925,1.28523028,-0.565619808,2.509672985
9.872384458,-1.125907686,0.005301086,-0.186506299,1.141262818
9.882374458,-0.383061915,-1.517215637,0.165693646,1.573573673
9.892364083,0.427820596,-2.609915816,0.62158826,2.716811181
9.902354083,1.283420859,-3.316584572,1.219606394,3.759566741
9.912344083,1.747058867,-4.067498624,1.574963762,4.698645613
9.922333083,1.710100079,-5.654078026,1.850223924,6.190021743
9.932323083,1.306547181,-7.719925044,2.169763881,8.124788214
9.942312083,1.777435445,-8.648910202,3.020931222,9.332146049
9.952302083,2.370454501,-8.230613258,3.420064502,9.222737681
9.962291083,2.116458178,-6.910247644,3.728401047,8.13215175
9.972281083,1.619454203,-4.353685917,4.302566341,6.331610387
9.982270083,0.28611771,-1.579816512,4.985605037,5.237741989
9.992260083,-1.743210814,0.515763597,4.831008164,5.161727996
10.00225008,-2.915422894,1.547608879,4.000200096,5.186172452
10.01223908,-2.980500065,1.658998922,2.782500772,4.402041413
10.02222908,-3.011648183,1.633837184,2.112552238,4.025211259
10.03221808,-2.585925275,1.976136112,2.379155158,4.031439287
10.04220808,-1.978255727,1.953698006,2.132339508,3.503898314
10.05219708,-0.660423712,1.895487805,1.243943967,2.36144661
10.06218708,1.11567769,1.955946261,1.311702671,2.605959781
10.07217608,2.510122848,1.706112278,0.876504351,3.159081464
10.08216608,3.151222975,1.23255973,0.288057232,3.395936792
10.09215608,3.726886326,1.081475279,-0.096798024,3.881834659
10.10214508,4.581251364,1.578383945,-0.65158126,4.889142877
10.11213508,4.94797645,2.028196211,-1.086296309,5.456747245
10.12212408,4.521363012,1.623582337,-1.094946972,4.927235732
10.13211408,4.053426715,1.24560136,-0.437090772,4.262961321
10.14210308,3.85370454,1.118576447,0.683304159,4.070522881
10.15209308,3.541753538,1.077364687,1.581449932,4.025632457
10.16208308,3.462852379,1.0313471,2.146669571,4.202762626
10.17207208,3.41636263,1.059914256,2.570321103,4.404713659
10.18206208,3.359087106,1.150946633,2.601790818,4.40198362
10.19205108,3.27280413,1.221495629,2.313031043,4.18967911
10.20204108,2.950796502,1.509131277,1.76958088,3.757139031
10.21203008,2.241076084,1.861311414,1.115565424,3.119517336
10.22202008,1.319290311,2.082771199,0.847553616,2.607069221
10.23200908,0.282769887,2.270073304,0.623528366,2.371071327
10.24199908,-0.747105468,2.214285019,0.39872836,2.370698005
10.25198908,-1.765074431,1.45264308,-0.284831908,2.303646865
10.26197808,-2.51970088,-0.001933089,-1.648657537,3.011140637
10.27196808,-2.421716748,0.128690785,-2.223630916,3.290259531
10.28195708,-3.241078015,-0.284455932,-2.9681946,4.404052799
10.29194708,-4.407081813,-1.34949118,-2.412079075,5.202078624
10.30193608,-5.87292586,-2.338204476,-1.125006046,6.420599421
10.31192608,-7.142118981,-2.52337527,-1.220603051,7.672493604
10.32191508,-7.034246038,-2.646194866,-2.224617926,7.837849801
10.33190508,-6.742764677,-2.833461303,-2.344704241,7.680560944
10.34189508,-5.895883198,-1.84125488,-2.037467849,6.504070529
10.35188408,-4.658605934,-1.160270603,-1.708649969,5.095912267
10.36187408,-3.085738252,-0.863162466,-1.417973185,3.503923224
10.37186308,-1.525129259,-1.245326541,-0.732789145,2.100913463
10.38185308,-0.158751905,-2.208471717,0.099683625,2.216412939
10.39184208,1.017965747,-3.343820903,0.765821236,3.578250223
10.40183208,1.818396944,-4.36329757,0.897811897,4.811548538
10.41182108,1.912278669,-5.640627676,0.253065155,5.96133645
10.42181108,1.862418,-6.414658111,0.664426424,6.712518302
10.43180108,1.673198885,-6.476110008,1.670002797,6.894092014
10.44179008,1.095983391,-5.347772219,2.598785641,6.045951878
10.45178008,1.480586924,-2.671581722,3.433558414,4.595520636
10.46176908,1.934691632,-0.668050236,3.588712234,4.13136519
10.47175908,1.453479232,-0.012741668,3.140343938,3.460422557
10.48174808,1.318514678,0.578614148,2.70179984,3.061535181
10.49173808,1.664374267,1.499797366,2.391465886,3.276986867
10.50172808,2.495768519,2.223979118,1.793336655,3.793547149
10.51171708,3.202608891,2.464329502,1.371660021,4.267443592
10.52170708,3.513346887,2.04621733,1.106504286,4.213663898
10.53169608,3.63349489,1.400620403,0.809757507,3.977402399
10.54168608,3.520573753,0.593160267,0.53387447,3.609889279
10.55167508,2.878039013,-0.511591024,0.391591248,2.949267306
10.56166508,1.984953713,-1.365100906,0.411274146,2.443908376
10.57165408,0.444924872,-1.42359996,0.649903986,1.626951192
10.58164408,0.278732677,-0.960447856,0.984146328,1.403102271
10.59163408,0.452849311,0.237015717,1.093581355,1.207132606
10.60162308,0.675440239,0.920213749,1.391827214,1.800054403
10.61161308,1.17339731,1.274478419,1.120773246,2.063319936
10.62160208,2.010353725,1.007124424,0.519501722,2.307748631
10.63159208,2.00520993,0.490156885,0.140469123,2.069022042
10.64158108,1.346599439,0.291369095,-0.441272116,1.446702139
10.65157108,0.860400534,-0.466404911,-0.798664023,1.263204988
10.66156008,0.141985599,-0.677085938,-1.138282295,1.332025473
10.67155008,-0.214284081,-0.585439019,-1.415066095,1.546308044
10.68154008,-0.330750677,0.274912691,-1.51680984,1.576605559
10.69152908,-0.422213409,0.564231167,-1.574601235,1.7251058
10.70151908,-0.604751202,0.783998183,-1.719048657,1.983810841
10.71150808,-0.498309366,0.78810059,-1.313801529,1.61105221
10.72149808,-0.054947163,0.924393924,-0.602419918,1.104732128
10.73148708,0.527772608,1.068998491,0.547329791,1.311819957
10.74147708,0.768275897,1.155965883,1.137678862,1.794663804
10.75146708,0.623269334,1.239986279,0.970786318,1.693651886
10.76145608,0.017736067,1.102857962,0.444024693,1.18901984
10.77144608,-0.578624089,1.183212154,-0.16201699,1.327044213
10.78143508,-0.982753522,1.486792574,-0.569132888,1.870900555
10.79142508,-1.399699759,1.905419301,-0.814085616,2.500503453
10.80141408,-1.986208818,2.133067778,-0.941059,3.062775809
10.81140408,-2.309710117,1.945674457,-1.216419661,3.255777435
10.82139308,-2.401932402,1.963738845,-1.405591121,3.406058707
10.83138308,-2.283393261,2.032540108,-1.796190974,3.545617871
10.84137308,-1.992369152,2.218300302,-1.993290088,3.586585625
10.85136208,-1.514252853,2.532234972,-2.164170288,3.659072108
10.86135208,-0.981078587,2.638278905,-2.557758068,3.803308705
10.87134108,-0.547438549,2.314414494,-3.109441695,3.91469425
10.88133108,-0.078384557,1.963333633,-3.42775476,3.950990482
10.89131967,0.679982941,1.487685444,-3.252173399,3.640359405
10.90130967,0.891646885,0.344938946,-3.095882002,3.240139259
10.91129867,1.019167642,-0.611291313,-3.144751861,3.361821533
10.92128867,0.954030536,-1.364644239,-3.244083191,3.646437154
10.93127867,0.372805021,-1.751224716,-3.545801858,3.972213791
10.94126767,-0.489678291,-1.421154655,-3.883708942,4.164452008
10.95125767,-1.215092051,-0.883888507,-3.966842315,4.241879953
10.96124667,-1.807167659,-0.384877768,-3.641318464,4.083281279
10.97123667,-2.446276516,0.109934671,-3.004192983,3.875761848
10.98122567,-2.860203251,0.688984437,-2.32003016,3.746732194
10.99121567,-2.879344988,0.948996668,-1.377357255,3.329915201
11.00120567,-2.781567556,0.678296896,-0.711545334,2.950169743
11.01119467,-2.261145482,0.140326744,-0.361994177,2.294234136
11.02118467,-1.400978545,-0.39779836,-0.181049677,1.467570579
11.03117367,-0.621323089,-0.889724028,0.039136584,1.085901883
11.04116367,-0.054989847,-1.265551475,0.083516804,1.269495757
11.05115267,0.188947219,-1.647091652,0.166340275,1.666217588
11.06114267,0.432785467,-2.018816108,0.929880586,2.264420377
11.07113167,0.70033476,-2.471260207,1.659713306,3.058143888
11.08112167,0.996933019,-3.184808212,2.283856945,4.043869599
11.09111167,0.885594724,-3.981781951,2.942661563,5.029723909
11.10110067,0.737079832,-4.609544871,3.552375298,5.866051555
11.11109067,1.218632832,-4.590284142,3.591481476,5.954369293
11.12107967,1.391149375,-4.27260784,3.478209214,5.682289475
11.13106967,0.836434259,-3.632058814,3.48399211,5.10192851
11.14105867,-0.170141112,-2.313321649,3.52853386,4.222671696
11.15104867,-1.193899402,-0.690743864,3.343743427,3.617062755
11.16103767,-2.275091092,-0.086851618,2.227791649,3.185378833
11.17102767,-2.321718543,-0.271554635,1.361800299,2.705294618
11.18101767,-2.071387547,-0.16219533,1.108167819,2.354780162
11.19100667,-1.730882545,0.05052696,1.41753669,2.237837712
11.20099667,-0.96909501,0.840287574,1.874574069,2.271399631
11.21098567,-0.176141524,1.395070226,1.866873286,2.337191185
11.22097567,0.956701252,1.676830591,1.809809139,2.646213755
11.23096467,2.368203323,1.399266188,1.439732136,3.1046999
11.24095467,3.306130628,1.33385514,0.952932722,3.690223575
11.25094467,3.835403632,1.526524404,0.915511711,4.228328212
11.26093367,4.094722676,1.382461874,1.146182614,4.471206684
11.27092367,3.95992389,1.189994924,1.475509787,4.390240798
11.28091267,3.674371605,1.374832428,1.461312747,4.186478931
11.29090267,3.365567867,1.378960562,1.178286167,3.823210378
11.30089167,3.233605565,1.367426929,1.089013217,3.675868761
11.31088167,3.008790649,1.427593024,1.004934934,3.478611394
11.32087067,2.760274043,1.296254035,0.556451447,3.099842823
11.33086067,2.626552899,1.243355445,0.034277255,2.906180969
11.34085067,2.570837705,1.437200584,-0.425307755,2.975842521
11.35083967,2.543456071,1.73212654,-0.73044412,3.162748764
11.36082967,2.109230727,2.109561971,-0.925751647,3.123479163
11.37081867,1.630556311,2.646100141,-0.677268956,3.181077345
11.38080867,1.181408873,2.982507999,0.021615987,3.208044286
11.39079767,0.56539681,3.247385699,0.553031118,3.342309209
11.40078767,-0.237367719,2.778263002,1.006437084,2.964456838
11.41077767,-0.81015424,1.918173832,1.14699947,2.377256513
11.42076667,-1.640914361,0.807389385,0.717836061,1.964628761
11.43075667,-2.583293151,-0.309476752,0.033710368,2.601983042
11.44074567,-3.447077761,-1.140038652,-0.235108355,3.638311306
11.45073567,-4.385828061,-2.012126893,-0.666406876,4.871164187
11.46072467,-5.391480741,-3.03521597,-0.779450219,6.236035857
11.47071467,-5.699898562,-3.064379543,-1.383547702,6.617663474
11.48070367,-5.639389236,-2.824479979,-2.604342835,6.823708648
11.49069367,-5.276913321,-2.687508953,-3.427064496,6.842023796
11.50068367,-4.587653188,-2.112178016,-3.691931671,6.256054444
11.51067267,-3.292432648,-1.249407313,-3.874060744,5.235406194
11.52066267,-1.916520824,-0.327192062,-3.303991716,3.833597263
11.53065167,-1.028261524,-0.033823219,-2.529722715,2.730927093
11.54064167,-0.373804603,-0.626898701,-1.966922946,2.097979442
11.55063067,0.339516823,-2.178146303,-0.294407016,2.224020791
11.56062067,1.14169166,-3.991467864,1.72935379,4.497325882
11.57061067,1.156374311,-5.859856163,1.838747886,6.249488746
11.58059967,0.973877448,-7.294819018,1.15925962,7.450282186
11.59058967,0.594190839,-8.207988626,1.918164184,8.450058809
11.60057867,0.310795299,-7.380531013,3.024827515,7.982381427
11.61056867,0.639425776,-4.383788552,3.068198944,5.388906397
11.62055767,1.33964096,-1.218726388,2.975220322,3.483083099
11.63054767,2.030362605,0.86017337,2.887139912,3.632884171
11.64053767,2.314957116,1.805272869,2.233713709,3.688836336
11.65052667,2.313756098,2.480353212,1.355697999,3.652880562
11.66051667,2.796134432,2.933366829,0.871751734,4.145233383
11.67050567,2.870850154,2.881989684,0.486813447,4.096905232
11.68049567,2.526300925,2.732098065,0.780951491,3.802162731
11.69048467,2.946335076,1.978047566,0.908699559,3.663235925
11.70047467,2.443808114,0.710605686,1.102053093,2.77338774
11.71046367,2.313701718,-0.213822151,1.371110382,2.697939813
11.72045367,1.792948692,-0.863027396,1.159252895,2.302900036
11.73044367,1.198985603,-1.252047331,1.118827439,2.063241099
11.74043267,1.01214075,-0.88636948,0.937874826,1.640027117
11.75042267,0.933708538,-0.10644973,0.936470032,1.326694879
11.76041167,1.565036213,0.98558679,1.04739756,2.125502604
11.77040167,1.642647476,1.841784053,1.116249986,2.708592487
11.78039067,1.717040431,2.364298845,1.212094914,3.163433412
11.79038067,2.052437306,1.68143118,0.937437454,2.813982709
11.80037067,1.274456785,0.848576002,0.055766065,1.532132886
11.81035967,0.098409517,0.198485489,-0.771254761,0.802443038
11.82034967,-0.535806683,-0.309339927,-1.171590228,1.324916471
11.83033867,-0.648596841,-0.235814699,-1.589635888,1.7329826
11.84032867,-0.384371399,0.151175083,-1.890265511,1.934864072
11.85031767,0.054073004,0.665823616,-1.79130504,1.911810326
11.86030767,0.112878744,1.043443819,-1.914526924,2.183330016
11.87029667,0.162649074,0.955854868,-1.783538768,2.030055119
11.88028667,0.524543776,0.688621325,-1.043367513,1.355714302
11.89027692,0.515427382,0.3301987,-0.532546714,0.811358472
11.90026592,0.46720481,0.23435231,-0.133257899,0.539406162
11.91025592,0.285233904,0.651483319,-0.093396114,0.71729473
11.92024492,-0.305063274,0.390155464,-0.187176244,0.52945239
11.93023492,-0.639287197,0.319384274,-0.193640925,0.740399381
11.94022392,-0.989722818,0.459052622,-0.055072585,1.092388921
11.95021392,-1.201880852,0.473920337,0.149686382,1.300586053
11.96020392,-1.119383655,0.617441415,0.068681395,1.28022295
11.97019292,-1.103585064,0.732999938,-0.070786539,1.326725154
11.98018292,-1.24376358,0.725514332,-0.274919562,1.465912567
11.99017192,-1.24499208,0.85493368,-0.733963559,1.679172231
12.00016192,-1.062068955,1.296342913,-1.380087759,2.170976194
12.01015092,-1.07710624,2.029610068,-2.16431179,3.156536141
12.02014092,-1.425073459,3.024502702,-2.941287467,4.453046476
12.03013092,-1.841525314,3.551182466,-3.613811992,5.390895056
12.04011992,-1.951420516,3.518439227,-4.261378262,5.860614415
12.05010992,-1.685374835,3.714796915,-4.308531379,5.93326614
12.06009892,-1.368793131,3.328654979,-3.925481451,5.325687113
12.07008892,-1.201497859,2.507407109,-3.613222593,4.559173722
12.08007792,-0.83371121,1.344977129,-3.669567533,3.99621868
12.09006792,-0.384352103,0.011541819,-4.078338193,4.096425535
12.10005692,-0.287922746,-1.077280487,-4.179269321,4.325473941
12.11004692,-0.523555596,-1.580670791,-4.048392262,4.3774548
12.12003692,-1.063628408,-1.267769909,-4.075049719,4.39824694
12.13002592,-1.816242538,-0.786463369,-3.995090214,4.458475906
12.14001592,-2.177462763,-0.130018687,-3.617426741,4.224218883
12.15000492,-2.065052089,0.263164465,-2.616437216,3.343566863
12.15999492,-2.14558082,0.607231591,-1.595212816,2.74170589
12.16998392,-1.991871261,1.276712641,-1.506992365,2.805097552
12.17997392,-1.225220305,1.770838616,-2.092226146,3.002406443
12.18996292,-0.580618866,1.405910379,-1.449786716,2.101329051
12.19995292,-0.335162401,0.407830428,-0.137807178,0.545573379
12.20994292,-0.219729009,-0.893123599,0.5441606,1.068672709
12.21993192,-0.053466648,-2.006382589,0.6332862,2.104633266
12.22992192,0.444868154,-2.798727672,1.295813155,3.11607381
12.23991092,1.017993521,-4.508989134,2.80761544,5.408326754
12.24990092,1.255567355,-6.916765535,3.931251483,8.054367329
12.25988992,1.557872789,-8.61959811,4.350847678,9.780302384
12.26987992,2.071390178,-9.009678145,3.783094733,9.988831929
12.27986992,1.822580042,-8.066309422,3.840779854,9.118044504
12.28985892,1.008159089,-5.770399611,4.524575472,7.401734906
12.29984892,-0.065485892,-2.93386852,5.050002762,5.840753444
12.30983792,-1.220090543,-0.678733099,4.408978357,4.62475834
12.31982792,-2.72836608,0.043835406,3.247921596,4.242039333
12.32981692,-3.58317843,0.583731047,2.327832977,4.312622863
12.33980692,-3.797300543,1.79851875,1.911319434,4.615983437
12.34979692,-2.17557382,2.928737589,1.968644367,4.145622505
12.35978592,-1.049787171,2.50904316,1.845694671,3.286934666
12.36977592,0.253071002,2.18354913,1.571734199,2.702273141
12.37976492,1.812943831,1.903268695,1.223022337,2.899134474
12.38975492,2.899612315,1.741811283,0.508166602,3.420510403
12.39974392,3.936543213,1.559064159,-0.191791305,4.238376744
12.40973392,4.829479702,1.424057797,-0.465958476,5.056573158
12.41972292,5.325990171,1.234044923,-0.801650342,5.525548068
12.42971292,5.37910394,0.96230844,-0.786456352,5.520807035
12.43970292,4.930137765,0.68912477,-0.571080888,5.010716986
12.44969192,4.277190303,0.545045868,-0.054366242,4.312121006
12.45968192,3.831183988,0.537397125,0.645993369,3.922253671
12.46967092,3.62136601,0.476207768,1.021964657,3.792819186
12.47966092,3.611553505,0.415073959,1.037908553,3.780589805
12.48964992,3.816986949,0.500415241,0.971739414,3.970400769
12.49963992,3.855346438,0.700318095,0.780793324,3.99546991
12.50962992,3.657984783,1.160929,0.473250246,3.866855908
12.51961892,3.182777474,1.68262869,0.506097565,3.635580628
12.52960892,2.425971767,2.110297551,1.255378197,3.4517632
12.53959792,1.237436601,2.393262443,1.603003354,3.135055695
12.54958792,-0.098667963,2.491741249,1.957720452,3.170359473
12.55957692,-1.042532238,2.461324618,2.062333134,3.376123561
12.56956692,-2.089919128,1.469533347,1.277530227,2.856461745
12.57955692,-2.977080029,0.440904034,0.165992074,3.014125948
12.58954592,-3.836026068,-0.480115462,-0.61157198,3.914029527
12.59953592,-4.378901157,-0.857896464,-1.356229949,4.663702538
12.60952492,-5.151432073,-1.631695933,-1.141956539,5.523019895
12.61951492,-5.545366008,-2.171570524,-1.470013989,6.13414573
12.62950392,-5.909678534,-2.267359026,-2.406373508,6.771694824
12.63949392,-5.690748839,-2.710140016,-3.442306433,7.181848985
12.64948392,-5.024190813,-2.54622385,-4.07732984,6.953442878
12.65947292,-4.10097715,-1.438878735,-3.559162453,5.617474785
12.66946292,-3.016016053,-0.577166963,-2.528126718,3.977549401
12.67945192,-2.07837497,-0.467585464,-1.813435874,2.797646931
12.68944192,-1.374930076,-0.881899869,-0.948260504,1.888750401
12.69943092,0.008001915,-1.641612226,1.084849123,1.967702303
12.70942092,1.512411857,-3.498444089,2.723307946,4.684325654
12.71940992,2.019165772,-5.954429029,2.360307828,6.715899681
12.72939992,1.459627579,-7.862391869,1.044338443,8.064636468
12.73938992,1.11476494,-8.375433002,1.59208134,8.597982428
12.74937892,1.050712201,-6.99118188,2.495784306,7.497303482
12.75936892,1.201564225,-3.974738395,2.752103144,4.981603518
12.76935792,1.678816305,-1.125133515,2.638973554,3.323933067
12.77934792,1.81411649,0.256862921,2.192682188,2.857420582
12.78933692,1.594319946,1.219586513,1.475470026,2.49123647
12.79932692,1.772361231,2.090740954,0.999123386,2.917312052
12.80931692,2.321653639,2.798330646,0.729222929,3.708435803
12.81930592,2.715154296,3.246997443,0.509306809,4.263150088
12.82929592,2.593186932,3.257793158,0.595497253,4.206239615
12.83928492,2.34521558,2.90895178,1.042120594,3.879181861
12.84927492,2.196779625,2.138548958,1.263534186,3.315984169
12.85926392,2.394027843,1.089261432,1.248238747,2.911350159
12.86925392,2.420834988,-0.587390234,1.078770357,2.714629774
12.87924392,2.201652402,-1.796909596,1.015638116,3.017893003
12.88923242,1.394253077,-2.041799759,0.894446239,2.629243612
12.89922242,1.135016479,-1.629934752,1.022495584,2.233930823
12.90921142,1.21329871,-0.593671314,1.269500392,1.853691084
12.91920142,1.363519235,0.468920968,0.86985285,1.683958301
12.92919042,1.659085169,0.931957882,0.596215145,1.994136803
12.93918042,1.467142129,0.936068475,0.47529107,1.804059815
12.94916942,1.441557052,0.486673114,0.137846793,1.527723533
12.95915942,1.194109025,-0.204370712,-0.151777346,1.220942306
12.96914942,1.213065406,-0.480431212,-0.145387363,1.31281351
12.97913842,0.838214151,0.128146409,-0.452632964,0.961197724
12.98912842,0.357861292,0.410516639,-0.590638947,0.803394661
12.99911742,0.166959642,0.715572311,-1.316944993,1.508066102
13.00910742,0.105907986,0.794026743,-1.926278512,2.08620322
13.01909642,-0.081091818,1.094139764,-1.544986403,1.894914428
13.02908642,-0.181025996,0.973470774,-1.461687115,1.76548718
13.03907642,-0.317073162,0.986349851,-1.276092836,1.643725751
13.04906542,-0.504150734,0.865587307,-0.775965132,1.26709559
13.05905542,-0.567336331,0.712670923,-0.439090739,1.011222544
13.06904442,-0.656752538,0.888041784,-0.5133036,1.217958412
13.07903442,-0.976394674,0.915647074,-0.593177809,1.464109298
13.08902342,-1.229530873,0.883547614,-0.801266034,1.71301775
13.09901342,-1.267888023,0.871155025,-0.709288236,1.693971935
13.10900342,-1.174302459,0.9754331,-0.506735934,1.608489137
13.11899242,-1.174510035,1.16087696,-0.230598909,1.667418662
13.12898242,-1.37799811,1.162952136,-0.057575194,1.804065233
13.13897142,-1.316897045,1.140062041,-0.114562084,1.745589802
13.14896142,-1.222925566,1.301555706,-0.463627995,1.845140946
13.15895042,-1.291463996,1.791953496,-0.958208884,2.407725244
13.16894042,-1.540845113,2.384450104,-1.693337281,3.305631121
13.17892942,-1.630598996,2.541271843,-2.467035009,3.89912521
13.18891942,-1.717854948,2.594062845,-3.15141067,4.428496007
13.19890942,-1.483614905,2.666090602,-3.530034256,4.665864778
13.20889842,-1.032548995,2.199686276,-3.667456688,4.399433565
13.21888842,-0.569609436,1.389068643,-3.730142348,4.020936277
13.22887742,-0.128439354,0.304475044,-3.873567531,3.887637732
13.23886742,0.160268965,-0.823908353,-4.170918328,4.254535323
13.24885642,0.113771321,-1.641463122,-4.413555558,4.7102885
13.25884642,-0.428165436,-1.759019639,-4.339506419,4.701998691
13.26883642,-1.301705394,-1.13050009,-4.024748461,4.378477768
13.27882542,-2.365441976,-0.30663559,-3.728974074,4.426577546
13.28881542,-3.175665213,0.338040985,-3.38081799,4.650704413
13.29880442,-3.606819307,1.029390621,-2.742048272,4.646247872
13.30879442,-3.620887416,1.574497885,-1.851146615,4.360804175
13.31878342,-3.397167098,1.856795025,-1.156962906,4.04066767
13.32877342,-2.922930719,1.793528736,-0.502748353,3.465981134
13.33876342,-2.08651137,1.389479703,0.115056832,2.509466401
13.34875242,-0.862087163,0.909720336,0.502042009,1.350122789
13.35874242,0.075732845,0.056074798,0.599491632,0.606852588
13.36873142,0.643902404,-1.273563915,0.46327263,1.500398907
13.37872142,1.121250964,-2.252695963,0.633965573,2.59494801
13.38871042,1.70052,-2.933100781,1.072734715,3.556066399
13.39870042,2.212084419,-4.38158766,1.110364179,5.032349006
13.40868942,2.35842941,-6.405036517,1.606389184,7.011930425
13.41867942,2.498871928,-7.742300584,2.292848647,8.452498694
13.42866942,3.18216644,-7.663909303,2.738866217,8.738596982
13.43865842,3.098649489,-6.73855819,2.886258152,7.95866077
13.44864842,2.091598155,-5.038779032,3.190520357,6.320086797
13.45863742,0.747075063,-2.492042381,3.953010142,4.732302353
13.46862742,-0.888637615,-0.507141877,3.96114128,4.091150197
13.47861642,-2.071360942,0.112280574,3.292101403,3.891153393
13.48860642,-2.795545033,0.521527197,2.751912525,3.957282551
13.49859642,-3.492018876,1.186174353,2.815822592,4.640049816
13.50858542,-2.779233055,1.561659154,2.88886104,4.30214293
13.51857542,-1.712046032,2.102859308,2.718431076,3.839659672
13.52856442,-0.672292975,2.016769583,2.056161397,2.957555931
13.53855442,0.921243444,2.137881791,1.466458297,2.751313863
13.54854342,2.056599354,2.272829096,0.716795841,3.147880125
13.55853342,2.647870385,2.057845103,0.393241625,3.37647494
13.56852342,3.672784086,2.385938221,-0.049025395,4.380005436
13.57851242,3.904279447,2.146636827,-0.723231871,4.513813466
13.58850242,4.142146811,1.986098013,-0.65234286,4.639775504
13.59849142,4.06271531,1.712966384,-0.349574618,4.422907633
13.60848142,3.707441995,1.411896758,-0.011411134,3.967204156
13.61847042,3.435099447,1.213873783,0.508631456,3.678600785
13.62846042,3.448816431,1.118480553,0.950735923,3.748230558
13.63845042,3.58142485,1.103815151,1.131490023,3.914751782
13.64843942,3.439665538,1.071610442,1.024396222,3.745535419
13.65842942,3.420558884,1.28912394,0.55747851,3.697681152
13.66841842,3.529761483,1.503374108,0.304430605,3.848639738
13.67840842,3.26063812,1.77054684,0.417512832,3.733753343
13.68839742,2.718652977,2.10998414,0.895262218,3.555924848
13.69838742,1.831635333,2.295852508,1.411707308,3.258641474
13.70837642,0.538188838,2.229005384,1.379538267,2.676048964
13.71836642,-0.499789004,1.954248814,1.312382995,2.406496748
13.72835642,-1.478079346,1.150335014,0.841189215,2.053189833
13.73834542,-2.658930101,-0.303574573,0.073382556,2.677209705
13.74833542,-3.649533218,-1.417856825,-0.609760804,3.962476362
13.75832442,-4.709002793,-2.342127373,-1.519768385,5.474482978
13.76831442,-5.399770339,-2.525131774,-1.333478287,6.108352849
13.77830342,-6.169978448,-2.509858262,-1.564682457,6.842240403
13.78829342,-6.239142238,-1.923438665,-2.709716093,7.068880638
13.79828342,-5.953364836,-2.308369058,-3.761488686,7.410797374
13.80827242,-5.231127284,-1.871950423,-3.871792609,6.771976746
13.81826242,-4.144761393,-0.61787177,-3.845280164,5.68744161
13.82825142,-2.746949408,0.33762291,-3.475147612,4.442563585
13.83824142,-1.612543086,0.677105818,-2.406743783,2.975093802
13.84823042,-0.828576478,0.046475424,-1.199638152,1.458708552
13.85822042,-0.028920913,-1.19376287,0.129402391,1.201104153
13.86821042,1.042521129,-2.52393251,1.606432746,3.168234806
13.87819942,1.219094177,-4.284389979,1.873549637,4.832429653
13.88818942,0.783124901,-6.47932013,1.617002173,6.723806212
13.89817842,-0.015970208,-8.144467984,2.044887966,8.397272211
13.90816842,-0.668441999,-8.557466181,2.656224302,8.985130477
13.91815742,-0.736636321,-7.202157022,3.36811316,7.98485348
13.92814742,-0.552530597,-4.479732006,3.593537942,5.769471712
13.93813642,0.759697155,-1.627858406,3.332173834,3.785557451
13.94812642,1.385870216,0.120664312,2.462137381,2.827952725
13.95811642,1.936785812,1.832354833,1.511164061,3.064682746
13.96810542,2.517475137,2.604560936,0.717067737,3.692641991
13.97809542,3.599220266,3.085651714,0.284008327,4.749346666
13.98808442,4.82474141,3.294794338,0.375173436,5.854447413
13.99807442,4.92032029,2.62839828,0.288166867,5.585791745
14.00806342,5.044620985,1.575822864,0.43284277,5.302713592
14.01805342,4.206143124,0.317302666,0.584744954,4.258432531
14.02804342,3.475254324,-0.700974737,0.897129234,3.656993172
14.03803242,2.706175019,-1.427667283,1.020093548,3.22524541
14.04802242,1.812752335,-1.354907455,1.08431498,2.509498798
14.05801142,1.826592694,-0.738779325,0.780533415,2.119308419
14.06800142,0.950493556,-0.28117272,0.664222941,1.193184065
14.07799042,1.519673514,0.633439981,0.832886899,1.845089262
14.08798042,1.608069674,0.850811393,0.365479337,1.855624759
14.09797042,0.631774694,0.673676426,-0.227182747,0.951099991
14.10795942,0.726367733,0.629960888,-0.209534973,0.984055745
14.11794942,0.959903187,0.59636688,-0.074776386,1.132545404
14.12793842,0.631162491,0.166417605,-0.152959653,0.670415964
14.13792842,0.245025525,-0.122333107,-0.638640056,0.694884177
14.14791742,0.280695587,-0.113089828,-1.304300973,1.338947479
14.15790742,0.497832525,-0.119075038,-2.455451382,2.508237943
14.16789742,0.564344019,1.376697689,-2.370736045,2.798958751
14.17788642,0.165203138,1.60184999,-1.567158752,2.247042951
14.18787642,-0.645998923,1.754500326,-0.957519131,2.100578228
14.19786542,-0.987233658,1.642793949,-0.289495501,1.938352367
14.20785542,-1.007124424,1.521101112,0.020531913,1.824409427
14.21784442,-1.155027405,1.440072736,-0.266806111,1.865230091
14.22783442,-1.501916105,1.429600958,-0.481832716,2.128772804
14.23782342,-1.649479655,1.288397716,-0.561508119,2.167035573
14.24781342,-1.58844174,1.030448967,-0.460499808,1.948597524
14.25780342,-1.267876036,0.906044776,0.024786493,1.558538145
14.26779242,-1.17134026,0.939386185,0.361147501,1.544316006
14.27778242,-1.424798347,0.923910944,0.253598494,1.716966499
14.28777142,-1.344048007,1.192688736,-0.098516374,1.799632446
14.29776142,-1.22145236,1.805173466,-0.579447377,2.255295185
14.30775042,-1.280603085,2.569724979,-1.380494871,3.18578041
14.31774042,-1.313520278,3.110179614,-2.297597902,4.083810582
14.32773042,-1.063128471,3.194118733,-2.835237687,4.401273608
14.33771942,-0.633808648,2.920850279,-3.053778541,4.273013355
14.34770942,-0.124527275,2.492551088,-3.25368315,4.100581911
14.35769842,-0.053729188,1.715130438,-3.579831483,3.969855501
14.36768842,0.076470471,0.648187244,-3.880592376,3.93509741
14.37767742,0.06436498,-0.359541782,-4.521699811,4.536428367
14.38766742,0.00353318,-1.101106721,-5.167801938,5.283807847
14.39765742,-0.379949149,-1.402710782,-5.19213688,5.39168288
14.40764642,-1.153396617,-1.169239063,-4.750200813,5.026116941
14.41763642,-2.070339434,-0.659455413,-4.231426485,4.756696007
14.42762542,-2.911362587,0.023338577,-3.769697592,4.763107887
14.43761542,-3.396159915,0.881326842,-3.211972622,4.75682744
14.44760442,-3.584152868,1.635493115,-2.408923041,4.617780823
14.45759442,-3.544747897,2.021476591,-1.53295868,4.359078753
14.46758442,-3.103456193,2.06121076,-1.277603756,3.938565919
14.47757342,-2.294505602,1.532627143,-0.902131747,2.903023184
14.48756342,-0.963244286,0.75887679,-0.111487545,1.231325713
14.49755242,0.012573268,-0.244834614,0.303135885,0.389863361
14.50754242,0.758185357,-1.532620711,0.745177203,1.865223939
14.51753142,1.515436037,-2.544758538,1.101448052,3.159988957
14.52752142,2.405375243,-3.366616273,1.904297659,4.554808971
14.53751142,2.831856242,-5.130361632,2.478880298,6.36277202
14.54750042,2.640094758,-7.703025422,2.553376164,8.533840332
14.55749042,2.803539638,-9.238004315,2.381021589,9.94333053
14.56747942,3.464049889,-9.307382698,2.148959487,10.16095671
14.57746942,3.455410628,-8.340973606,2.523167109,9.374330673
14.58745842,2.030168185,-6.197155722,3.182360275,7.256289604
14.59744842,0.446275286,-3.119342201,4.062411254,5.141268578
14.60743742,-0.593029874,-0.407833936,4.209383651,4.27047113
14.61742742,-2.590431724,0.322445877,3.594800355,4.442622813
14.62741742,-3.900841284,0.628634155,3.185651965,5.075443041
14.63740642,-4.419257762,1.914555575,3.304179412,5.840630429
14.64739642,-3.451060592,2.82537051,2.951749306,5.348398049
14.65738542,-2.654941131,3.160165706,2.482050366,4.816215705
14.66737542,-1.06772906,2.592816219,2.098042664,3.502074287
14.67736442,1.565192041,3.228274074,1.674046147,3.959041567
14.68735442,2.622924702,2.646441618,0.822920466,3.815833503
14.69734442,3.484365748,2.16145718,-0.072678552,4.10097354
14.70733342,4.305271263,2.126512465,-0.481358872,4.825880467
14.71732342,4.887747498,1.915099366,-0.823911277,5.313803814
14.72731242,5.081666604,1.493329176,-0.674492405,5.339317139
14.73730242,4.875301992,0.832595562,-0.472873685,4.968439836
14.74729142,4.535487838,0.582657498,-0.352913378,4.586358855
14.75728142,4.073161068,0.466170437,-0.300594832,4.110755796
14.76727142,3.822491518,0.5623355,-0.27757639,3.873591521
14.77726042,3.746898129,0.622681689,-0.218116639,3.804543723
14.78725042,3.65193847,0.700210506,-0.012259565,3.718480824
14.79723942,3.371753052,0.881778831,0.280226348,3.496395195
14.80722942,3.006150923,1.084011217,0.630414047,3.257214387
14.81721842,2.319891581,1.365382742,1.268056422,2.975589701
14.82720842,1.606461689,1.78711551,2.35759472,3.366415582
14.83719842,0.76584521,2.251570374,3.234287058,4.014561098
14.84718742,-0.261524906,2.16956376,3.206077459,3.879991605
14.85717742,-0.923639633,1.773195629,2.920301811,3.539137688
14.86716642,-1.337409078,0.842798368,1.871230631,2.449586946
14.87715642,-2.011931012,-0.344777563,-0.053884723,2.041970011
14.88714542,-2.583532594,-1.041692578,-1.724210287,3.276074665
14.89713554,-3.094280157,-1.773427178,-2.261223397,4.222883481
14.90712454,-3.194506111,-1.901109318,-2.578177714,4.523945873
14.91711454,-3.883126852,-2.036318579,-2.082686122,4.854157907
14.92710454,-4.645914845,-1.488228065,-1.962629482,5.258446729
14.93709354,-5.216453696,-1.784873688,-2.365533923,5.99940947
14.94708354,-5.360943657,-1.950720019,-2.932748194,6.41451771
14.95707254,-5.164504108,-1.37821855,-3.591271853,6.439629072
14.96706254,-4.251221648,-0.169649945,-3.520227306,5.522107106
14.97705154,-3.279696535,0.594931973,-2.613314803,4.235536291
14.98704154,-2.387923935,0.726877903,-1.437299402,2.880340566
14.99703154,-1.552602694,0.17396636,-0.334063125,1.597634999
15.00702054,-0.462675557,-0.951156045,1.015110551,1.466020438
15.01701054,0.69072106,-2.683408885,2.386114222,3.656681543
15.02699954,1.225748017,-4.759506072,2.814512815,5.663641817
15.03698954,0.902342904,-6.95144888,1.946802677,7.275087966
15.04697854,0.028964475,-8.368327466,2.276954892,8.672615931
15.05696854,-0.133638991,-8.078886783,2.917055729,8.590429858
15.06695854,-0.050246586,-6.064156124,2.686104744,6.632621873
15.07694754,0.636942756,-2.428307145,3.043909903,3.945599975
15.08693754,1.440682601,0.018085438,3.319576592,3.618768049
15.09692654,1.515952638,1.356910712,2.611942753,3.310825279
15.10691654,1.870842376,2.171909662,1.622653799,3.293971483
15.11690554,3.225446361,2.977372389,0.900295209,4.480935397
15.12689554,4.755201352,3.149485767,0.459110802,5.722061099
15.13688554,5.12208022,2.621062363,0.259629824,5.759607742
15.14687454,5.011231045,1.652954071,0.392047331,5.291350948
15.15686454,4.544437002,0.284685727,0.788658122,4.621140039
15.16685354,3.899406669,-0.852916975,0.897903698,4.091340953
15.17684354,3.023170121,-2.0025053,0.69826543,3.692852511
15.18683254,2.017308404,-2.465059819,0.693899314,3.259992234
15.19682254,1.245249065,-1.697747251,0.777003451,2.244264986
15.20681154,0.753409936,-0.54093586,1.049119127,1.400317492
15.21680154,0.379431671,0.384749714,1.084214408,1.211413066
15.22679154,0.312885971,0.788178942,0.609209851,1.044155313
15.23678054,0.78130554,0.794783372,0.468651996,1.209030045
15.24677054,1.274033446,0.304236478,-0.140991572,1.317421603
15.25675954,1.133526316,0.285233611,-0.841285547,1.440139401
15.26674954,0.722375547,0.323389032,-0.740053726,1.083552682
15.27673854,0.451164728,0.036228763,-0.231042202,0.50817579
15.28672854,0.687146949,-0.101002464,0.008858386,0.694586855
15.29671854,0.249702128,0.302404545,-0.97020028,1.046464641
15.30670754,-0.094928377,1.094176016,-1.257426184,1.66953681
15.31669754,-0.183372776,1.338925846,-1.248340927,1.839756251
15.32668654,-0.385080374,1.337579817,-1.232885567,1.859412133
15.33667654,-0.366089494,1.531919045,-1.066464307,1.902141845
15.34666554,-0.281594304,1.738773655,-0.836110908,1.949797586
15.35665554,-0.174466882,1.639361048,-0.560675476,1.741350145
15.36664554,-0.195076563,1.324158702,-0.439938658,1.408899272
15.37663454,-0.302525875,1.152959245,-0.709283485,1.387054428
15.38662454,-0.422010803,1.027741706,-0.978225145,1.480294082
15.39661354,-0.84655462,0.832155851,-0.958230007,1.525563119
15.40660354,-1.24240498,0.763437034,-0.758580483,1.643730692
15.41659254,-1.345430581,0.981893688,-0.334721667,1.698922381
15.42658254,-1.470878792,1.147557587,-0.100521677,1.86828195
15.43657254,-1.495126026,1.17314091,-0.046182479,1.900998224
15.44656154,-1.300198859,1.350921993,-0.181822825,1.88376401
15.45655154,-1.115036835,1.584797755,-0.651920033,2.044478124
15.46654054,-1.048773556,2.082989885,-1.230215582,2.636703095
15.47653054,-1.366772333,2.796037368,-1.987797068,3.692861865
15.48651954,-1.637937544,3.492840117,-2.858575094,4.801481339
15.49650954,-1.534158529,3.529115658,-3.275488586,5.053427075
15.50649854,-1.164892827,3.153045552,-3.289857534,4.703385392
15.51648854,-0.828473567,2.270811807,-3.065471803,3.903853492
15.52647854,-0.43265946,0.980669281,-2.993138237,3.179273966
15.53646754,-0.04056652,-0.337593089,-3.146956261,3.165272255
15.54645754,0.005844584,-1.41747851,-3.322706022,3.612430594
15.55644654,-0.487151417,-1.81542422,-3.775778404,4.217770046
15.56643654,-1.326189148,-1.258091598,-4.168208728,4.551432316
15.57642554,-2.428325856,-0.091416539,-4.260779507,4.905034705
15.58641554,-3.352879117,1.154494724,-4.208345186,5.503165057
15.59640554,-3.834831482,2.024900136,-3.611606423,5.643567489
15.60639454,-3.935496854,2.503965438,-2.667426106,5.373373282
15.61638454,-3.831212055,2.732959945,-1.822950171,5.046821098
15.62637354,-3.386476926,2.809287159,-1.225637285,4.56754935
15.63636354,-2.431331325,2.653422024,-1.123091229,3.770060259
15.64635254,-1.592428372,1.832744842,-0.936626884,2.602316602
15.65634254,-0.852545092,0.420147003,-0.143037074,0.9611536
15.66633254,-0.146792302,-1.073258772,0.722069006,1.301850998
15.67632154,0.508481182,-2.351862987,1.080999462,2.637872715
15.68631154,1.283748303,-3.413591634,0.920992452,3.761495001
15.69630054,1.810369302,-5.031601574,1.054554845,5.450370385
15.70629054,1.582466178,-7.493150725,1.982008616,7.910743654
15.71627954,1.477554558,-9.925155065,1.856514359,10.20482808
15.72626954,2.185175825,-10.57014739,2.102940877,10.99660718
15.73625954,2.113299219,-9.48432763,2.53479956,10.04209704
15.74624854,1.288407949,-6.502390904,3.607740244,7.546977685
15.75623854,-0.178149458,-3.050251501,4.842081328,5.725515089
15.76622754,-1.587248324,-0.65409644,5.21990063,5.494957868
15.77621754,-2.300650733,0.731352192,4.588089975,5.184442057
15.78620654,-3.694798853,0.786311926,3.984019973,5.49019491
15.79619654,-3.813626262,1.210796978,3.600032736,5.382379612
15.80618654,-3.212085473,1.489316817,3.42724956,4.927636068
15.81617554,-1.951043663,2.284960315,2.83432786,4.130499901
15.82616554,-0.650730198,2.828136243,1.539303202,3.285005137
15.83615454,0.654786412,2.370656523,0.603840499,2.532465388
15.84614454,2.32137502,2.011403008,0.146901061,3.075077879
15.85613354,3.609867461,2.049918033,-0.175652989,4.155016366
15.86612354,4.284141473,1.830411218,-0.509248044,4.686534643
15.87611254,4.832503881,1.696231068,-0.754814145,5.176875312
15.88610254,5.365813803,1.790957716,-0.82907583,5.717241821
15.89609217,5.314551848,1.810273992,-1.043003232,5.710464869
15.90608117,4.829469469,1.692139771,-1.561780483,5.350352384
15.91607117,3.887740597,1.481190941,-1.587194237,4.452823722
15.92606017,3.20678468,1.213216556,-0.431391491,3.45564191
15.93605017,3.345577406,1.015200598,1.057791425,3.652730915
15.94603917,3.636949425,0.859997953,1.495355529,4.025305672
15.95602917,3.581558166,0.718553222,1.691595103,4.025589599
15.96601917,3.148022209,0.879276223,1.842300947,3.751965256
15.97600817,2.642107077,1.265080774,2.181490325,3.65240458
15.98599817,2.082634374,1.503138465,2.99010704,3.941767534
15.99598717,1.262494551,2.137122822,3.180946418,4.034799446
16.00597717,0.274080925,2.506953365,2.683251887,3.682360143
16.01596617,-0.498564304,2.181399109,1.960573747,2.975049219
16.02595617,-1.40131359,1.321694101,0.934929729,2.141179272
16.03594617,-2.323677653,0.640165449,-0.664055418,2.500051846
16.04593517,-3.592231381,-0.427778789,-2.246336532,4.258303512
16.05592517,-4.244305854,-1.44548258,-3.127858378,5.466904984
16.06591417,-4.928145618,-2.180258317,-2.627382326,5.995271758
16.07590417,-5.53805348,-2.56782288,-1.57847253,6.305182489
16.08589317,-6.378794214,-2.635619591,-2.078626108,7.208064424
16.09588317,-6.762628253,-2.710924712,-3.049149885,7.898073734
16.10587317,-5.880023795,-1.802614725,-3.375148822,7.015392309
16.11586217,-4.393963,-0.694127063,-3.480481442,5.648227536
16.12585217,-3.110365263,-0.103717327,-3.141449061,4.421971456
16.13584117,-1.840675128,0.169206727,-1.91906524,2.664493806
16.14583117,-1.046712998,-0.433360541,-0.184416212,1.147788655
16.15582017,-0.001995655,-1.714892457,1.633487813,2.368362843
16.16581017,0.993313885,-3.402101855,2.517083666,4.347031135
16.17579917,1.430585629,-4.860350077,2.720657988,5.750787598
16.18578917,0.709510795,-6.459112152,2.831730819,7.088175703
16.19577917,-0.859537777,-7.900211075,3.390798603,8.640003205
16.20576817,-1.278977267,-7.490904225,3.382651677,8.31815853
16.21575817,-0.794621989,-5.042230643,2.672018801,5.76152744
16.22574717,0.210933627,-2.419873706,2.497862991,3.484193059
16.23573717,1.221138364,-0.075392244,2.027668208,2.368185224
16.24572617,2.04785075,1.485770481,0.719775875,2.630453178
16.25571617,3.00349658,2.489836811,-0.234183326,3.908339913
16.26570617,3.686964169,2.850701233,-0.98834346,4.764139492
16.27569517,4.592282428,3.009696382,-1.10753515,5.601246676
16.28568517,5.341972951,2.688938597,-0.639139262,6.014612604
16.29567417,5.343116666,1.687149757,-0.190331109,5.60638885
16.30566417,4.908501313,0.519588261,0.452802825,4.956650835
16.31565317,3.916546613,-0.612866553,1.36730823,4.193384621
16.32564317,2.581403039,-1.31738178,1.721160964,3.370687091
16.33563317,1.421010813,-1.361024228,1.480262842,2.462282835
16.34562217,0.397582013,-0.982822811,0.993275878,1.452793552
16.35561217,0.635573046,-0.418072411,0.858208413,1.146847556
16.36560117,0.237318018,0.034894429,0.935685482,0.965942433
16.37559117,0.317938843,0.522304292,0.908025521,1.094713309
16.38558017,1.002987519,0.474295728,0.714191784,1.319473495
16.39557017,1.033125238,0.037019307,0.498496477,1.147700712
16.40556017,0.812002545,-0.20500455,0.423421444,0.93843525
16.41554917,0.77777733,-0.145040184,0.544775727,0.960601282
16.42553917,1.198520164,0.313672714,0.397666798,1.301145664
16.43552817,1.142528397,0.638231775,-0.366323383,1.359008372
16.44551817,0.558826001,0.442533653,-0.719493016,1.012814264
16.45550717,0.608875828,0.674503223,-0.753671014,1.18055257
16.46549717,0.301807252,0.951144351,-1.164006243,1.533190702
16.47548617,0.049847806,1.4026412,-1.097673163,1.781789413
16.48547617,-0.050731612,1.407245883,-0.611372955,1.535151967
16.49546617,-0.112780511,1.162393727,-0.312607352,1.208967318
16.50545517,-0.109797554,0.901726023,-0.17727815,0.925523023
16.51544517,-0.182195147,0.720401527,-0.316568255,0.807705944
16.52543417,-0.813575446,0.211881461,-0.614084967,1.041104753
16.53542417,-0.73941521,0.38177582,-0.646105781,1.053537047
16.54541317,-0.849726149,0.790041865,-0.597873123,1.305240571
16.55540317,-1.057233016,1.063438958,-0.242540093,1.519035801
16.56539317,-1.439893227,1.401306281,-0.214590476,2.020643677
16.57538217,-1.645533954,1.682985955,-0.611232987,2.431836648
16.58537217,-1.600810063,1.878307516,-0.849971075,2.610188271
16.59536117,-1.426163087,2.159861475,-1.267022635,2.881716346
16.60535117,-1.432721324,2.496593853,-1.726467605,3.356540131
16.61534017,-1.378251294,3.097620379,-2.514839505,4.221284921
16.62533017,-1.250948054,3.141119571,-3.033140209,4.542184796
16.63532017,-1.081389618,2.970097284,-3.336470368,4.595967351
16.64530917,-1.048475933,2.639825494,-3.361220462,4.400657157
16.65529917,-0.918962445,1.770401829,-2.992925398,3.596723099
16.66528817,-0.628951074,0.547459599,-3.178824756,3.286368558
16.67527817,-0.214369451,-0.750212971,-3.647399569,3.729919218
16.68526717,-0.117511493,-1.868630374,-3.987149695,4.404878105
16.69525717,-0.487934359,-2.372849228,-4.24321681,4.886039531
16.70524717,-1.370728559,-1.903874466,-4.413745008,4.998477744
16.71523617,-2.604539009,-0.80038442,-4.58529062,5.333772468
16.72522617,-3.573948307,0.479264107,-4.614561782,5.85636244
16.73521517,-4.167199206,1.717812556,-4.076309209,6.077230123
16.74520517,-4.580948186,2.996595696,-3.350910652,6.418198675
16.75519417,-4.749128726,3.960504518,-2.546000487,6.687446312
16.76518417,-4.513600248,4.381744366,-2.063524504,6.620453479
16.77517317,-3.519660711,4.397731823,-1.628417984,5.863429187
16.78516317,-2.490981696,3.552913241,-0.809704882,4.414046251
16.79515317,-1.849084886,1.769361024,0.336944633,2.581333965
16.80514217,-1.172217927,-0.377024372,1.148367426,1.683742852
16.81513217,0.218672709,-2.593863455,0.833452764,2.733237803
16.82512117,1.578322841,-5.034374324,1.415730046,5.462629348
16.83511117,2.377300129,-7.097436898,3.663823228,8.333592687
16.84510117,2.217781362,-8.728239377,4.701783528,10.15910848
16.85509017,2.114720385,-10.26917132,3.154126117,10.94880968
16.86508017,1.8036222,-11.05917109,2.247543397,11.42846313
16.87506917,1.605058065,-9.919942857,2.490906851,10.35307175
16.88505917,0.903440134,-7.383332999,3.692696779,8.304566199
16.89504829,0.157584801,-4.324456855,4.889530606,6.529415717
16.90503829,-0.041784203,-1.335773027,5.693104098,5.847860273
16.91502829,-1.055102583,0.322610768,5.650473218,5.757183926
16.92501729,-2.773879344,1.353451499,5.121627645,5.979741409
16.93500729,-3.358679555,2.326398363,4.629040657,6.174210484
16.94499629,-3.565024872,2.872247053,4.030055394,6.099225521
16.95498629,-2.772685635,3.386857579,3.10640699,5.367341454
16.96497529,-1.434178743,3.234126552,1.288602369,3.765227654
16.97496529,-0.132093864,2.979402543,-0.291824008,2.996572968
16.98495429,2.083042802,2.510766919,-0.892879186,3.382344021
16.99494429,3.593885266,1.951141604,-1.180190605,4.256267699
17.00493429,4.565883419,1.571515805,-1.534306171,5.066660513
17.01492329,5.248090641,1.589076748,-1.983315031,5.83105126
17.02491329,5.425729637,1.467128972,-2.173754167,6.026293778
17.03490229,5.05269599,1.042784253,-2.270779355,5.636805358
17.04489229,4.555961279,0.655818445,-1.752248856,4.925165689
17.05488129,4.06581755,0.29788874,-0.124167086,4.078606075
17.06487129,3.719653905,0.090226631,2.075665662,4.26055794
17.07486129,3.531814733,0.190071931,3.075746823,4.687223183
17.08485029,3.312117884,0.386834246,3.655257057,4.947794434
17.09484029,3.048561071,0.746017009,3.500648781,4.701575041
17.10482929,2.74060781,1.254489128,2.381746936,3.841535189
17.11481929,2.200229482,1.761683046,1.159147646,3.047648305
17.12480829,1.393490893,2.194150717,0.294684758,2.615903924
17.13479829,0.481306832,2.788038377,-0.060238308,2.829919241
17.14478729,-0.708007768,3.107533164,-0.514987671,3.228505795
17.15477729,-1.704457515,3.320732587,-0.950556852,3.851752674
17.16476729,-2.361566149,3.041981784,-1.308065703,4.067146878
17.17475629,-3.120146778,1.963752294,-1.828781599,4.115347023
17.18474629,-3.545530839,1.352273285,-1.82990485,4.212835592
17.19473529,-3.43073567,1.033443911,-1.792498457,4.006370461
17.20472529,-4.540844765,0.132093279,-2.084680461,4.998260941
17.21471429,-5.852247766,-1.338584953,-1.710439509,6.2422926
17.22470429,-6.862910925,-2.38639138,-0.735869751,7.30314415
17.23469429,-6.729755791,-2.777882348,-0.198833399,7.283253262
17.24468329,-5.990229192,-2.588519685,-1.59139897,6.716831888
17.25467329,-4.828397382,-1.616990186,-3.190453991,6.008916309
17.26466229,-3.394980531,-0.259415231,-3.427092855,4.830957928
17.27465229,-2.170136202,1.040061205,-3.014295217,3.85709659
17.28464129,-0.699686596,1.896480078,-2.149587332,2.950749687
17.29463129,1.128963149,2.036146671,-0.657211837,2.419168959
17.30462129,2.629726768,0.581797957,0.085469921,2.694671936
17.31461029,3.494458627,-2.371804331,0.185951398,4.227443057
17.32460029,3.579727111,-4.447729025,0.995111027,5.795427993
17.33458929,2.987645363,-5.604860258,3.095941644,7.065786438
17.34457929,0.606796558,-8.475340868,4.158047436,9.459860642
17.35456829,-2.562210723,-11.24297948,2.452607589,11.78918128
17.36455829,-2.80979499,-7.932721594,2.455788766,8.766636655
17.37454829,-0.962073674,-2.954810323,3.463368981,4.653108047
17.38453729,-0.430196612,-0.642369849,3.261743244,3.352115323
17.39452729,0.257033075,0.507078143,2.687428553,2.746901249
17.40451629,1.964912674,1.066321051,2.517769252,3.367058717
17.41450629,3.412689409,1.052006482,2.132535974,4.159432211
17.42449529,3.97187209,0.444530477,1.615247131,4.310730627
17.43448529,3.821795114,-0.492606284,1.195707654,4.034661775
17.44447529,3.133574324,-1.564666377,0.849701299,3.604089512
17.45446429,2.308707319,-2.630875745,0.643118585,3.558825394
17.46445429,1.771109927,-3.299560404,0.156408341,3.748118568
17.47444329,1.685105571,-3.17971938,-0.400794181,3.620888302
17.48443329,1.278158949,-2.455148789,-0.529322705,2.818089495
17.49442229,0.562507993,-1.658019513,0.215884026,1.764100298
17.50441229,1.221783312,-0.146706641,1.212143008,1.727300776
17.51440129,2.495995975,1.051491927,2.08734109,3.41944791
17.52439129,2.355591756,0.941305826,1.709281468,3.058841663
17.53438129,3.135266216,0.955329203,0.958854636,3.414959786
17.54437029,3.753814508,1.050060529,0.41342519,3.91977944
17.55436029,3.38007861,0.515701032,0.181751197,3.424019927
17.56434929,2.721101791,0.064444503,-0.341577966,2.743214093
17.57433929,2.325934971,0.464496379,-1.38924216,2.748767752
17.58432829,1.941187011,1.149361453,-1.58403981,2.756523333
17.59431829,2.157092818,1.593477947,-2.001967356,3.346654253
17.60430829,1.431371495,1.387524979,-2.458081752,3.164840568
17.61429729,1.461197264,1.852483873,-1.404585253,2.745842981
17.62428729,1.032434097,1.285448965,-0.374323543,1.690685459
17.63427629,0.745926962,1.063962868,-0.188480319,1.312992326
17.64426629,0.337134375,1.612264466,-0.481936797,1.716193279
17.65425529,0.144723558,1.993929189,-0.317186891,2.024180338
17.66424529,-0.156345483,2.150605917,-0.45171612,2.203088099
17.67423429,-0.718181924,2.269868066,-1.06396053,2.607699814
17.68422429,-1.235067601,2.184513921,-0.70068128,2.605464892
17.69421429,-1.552681339,2.238550964,-0.165377933,2.729336846
17.70420329,-1.803851118,2.258267775,-0.03651937,2.890499242
17.71419329,-2.087026218,2.358259256,-0.414960559,3.176359145
17.72418229,-2.558120595,2.466000051,-0.871361432,3.658470716
17.73417229,-2.82316611,2.79247466,-1.557968391,4.265612162
17.74416129,-2.804650317,3.221588368,-2.132173154,4.773977102
17.75415129,-2.89836715,3.461031264,-2.601054361,5.2100627
17.76414129,-3.133288687,3.198142787,-3.007040577,5.393320713
17.77413029,-3.308170429,2.4089131,-3.216588414,5.20512199
17.78412029,-3.102314524,1.520752618,-3.464501002,4.892832628
17.79410929,-2.096197868,0.612406962,-3.791811762,4.375719852
17.80409929,-1.284450261,-0.559015451,-3.87613212,4.121493778
17.81408829,-0.777868839,-1.521622683,-4.208511246,4.542244207
17.82407829,-0.653876585,-2.075851019,-4.663660852,5.146498283
17.83406829,-0.807142047,-1.813456047,-4.718901837,5.119388212
17.84405729,-1.44579336,-0.729285786,-4.703126049,4.97408995
17.85404729,-2.284065691,0.532528149,-4.198022511,4.808735313
17.86403629,-2.770946673,1.457639526,-3.260793364,4.520578704
17.87402629,-3.168727199,1.674070705,-2.613664466,4.435604438
17.88401529,-2.967979715,1.443188133,-2.379765315,4.068780963
17.89400579,-2.592009595,0.760559619,-1.894430044,3.299368101
17.90399579,-2.088208232,-0.357796973,-1.369254184,2.522595749
17.91398479,-1.487151593,-1.708418419,-0.579729213,2.338033215
17.92397479,-1.3755262,-3.410023663,-0.039520088,3.677213013
17.93396379,-0.381794823,-4.316313438,0.358689331,4.347986547
17.94395379,0.959938855,-4.951760768,1.403248726,5.235506117
17.95394279,2.137383316,-6.30121628,2.074259992,6.969669186
17.96393279,3.354492364,-7.583710647,2.612164071,8.694175483
17.97392179,4.172337447,-8.133333716,2.634789287,9.513234554
17.98391179,4.086136039,-7.764880777,2.38604771,9.093025068
17.99390179,3.768141063,-6.098245976,2.997590307,7.770008926
18.00389079,2.989209785,-3.543816728,4.401044855,6.392433649
18.01388079,1.008238903,-1.675077011,5.316233507,5.664341743
18.02386979,-1.192443153,-0.095943453,5.525207148,5.65323269
18.03385979,-2.62752646,0.876956048,4.364828371,5.169591272
18.04384879,-3.881928465,0.881946062,3.13861667,5.069330534
18.05383879,-3.749991598,1.436739823,2.341819371,4.648739213
18.06382879,-2.914201118,2.056674491,2.181303799,4.180976487
18.07381779,-1.726898544,2.371904318,1.937537764,3.515986528
18.08380779,0.020039577,2.462334432,1.544020443,2.906456875
18.09379679,1.68653463,2.240007505,1.093132288,3.009480168
18.10378679,2.987723715,1.650342704,0.52870407,3.453932836
18.11377579,3.848330364,1.460619267,0.277020028,4.125505463
18.12376579,4.450588606,1.487825192,0.160975309,4.695452671
18.13375579,4.775369568,1.427308849,0.258297828,4.990799818
18.14374479,4.877836175,1.19424585,0.216439073,5.026564908
18.15373479,4.521050186,0.984105105,0.211197044,4.631734214
18.16372379,3.969150796,0.746242712,0.280141271,4.04839664
18.17371379,3.372974535,0.572272258,0.541028831,3.463692387
18.18370279,2.844003832,0.692158306,0.862859581,3.051551667
18.19369279,2.496661681,0.897406685,0.88241267,2.795945355
18.20368179,2.539414768,1.155272988,0.557219771,2.844956399
18.21367179,2.429228666,1.156304437,0.463766062,2.730067916
18.22366179,2.492998985,1.432785936,0.596281803,2.936574785
18.23365079,2.322243039,1.909965511,0.539306241,3.054772038
18.24364079,1.725372129,2.238645689,0.582635863,2.885811507
18.25362979,1.004097905,2.734006011,0.664034368,2.987296958
18.26361979,0.168790112,3.288861753,0.746867194,3.376819856
18.27360879,-0.840830196,3.367881026,0.606514284,3.523844151
18.28359879,-2.071695403,2.154507764,0.059722291,2.989547173
18.29358879,-3.337745646,0.758708391,-0.612298058,3.477224946
18.30357779,-4.070019944,0.115577234,-1.226676847,4.252429485
18.31356779,-4.484734299,-0.709483021,-1.045311274,4.659279295
18.32355679,-5.311809504,-1.73410056,-0.798877008,5.644522073
18.33354679,-5.934053237,-2.631389131,-1.306115949,6.621414913
18.34353579,-6.014615005,-2.845034112,-1.751058655,6.880117671
18.35352579,-5.725645607,-2.529307855,-2.876674857,6.888807885
18.36351579,-4.516742542,-1.752335687,-3.770339617,6.138982356
18.37350479,-3.279029076,-0.882893896,-3.90455105,5.174654791
18.38349479,-2.292479249,0.119348688,-3.845363194,4.478450995
18.39348379,-1.279061175,1.106037093,-3.127126891,3.555029977
18.40347379,0.299771251,1.773062897,-1.278079427,2.206150915
18.41346279,1.588104648,0.610497846,-0.126748632,1.706121101
18.42345279,1.9066861,-2.515746408,0.463103865,3.190438381
18.43344179,2.05877481,-5.620034952,1.868823917,6.270235196
18.44343179,1.993060293,-7.825718717,3.458728338,8.785042088
18.45342179,-0.076322244,-10.4567079,3.020924498,10.88460151
18.46341079,-2.140498128,-10.75418499,1.178601917,11.02829677
18.47340079,-0.61998203,-4.558446638,1.891789441,4.97420152
18.48338979,1.018725007,-0.10074811,2.929193087,3.102921681
18.49337979,0.968740377,0.717800685,2.936450651,3.174340587
18.50336879,1.21536687,0.940566153,2.004274375,2.525647855
18.51335879,1.624523739,0.573479708,1.71126689,2.428248489
18.52334879,2.71857404,0.315671877,2.20852405,3.516798547
18.53333779,3.49974334,0.075858852,1.897700684,3.981862114
18.54332779,3.156965233,-0.969548462,1.543026124,3.645186322
18.55331679,2.790226405,-2.050157769,1.31325423,3.703126644
18.56330679,2.815192847,-2.558235785,0.858192918,3.89953538
18.57329579,2.828524498,-2.747784975,0.136031671,3.945805079
18.58328579,2.539819687,-2.533775713,-0.378711879,3.60750968
18.59327579,1.7599511,-2.093652867,-0.059876658,2.73576231
18.60326479,1.405361618,-0.876104693,0.635242678,1.77373447
18.61325479,1.598006908,0.832448212,1.022347796,2.071663853
18.62324379,2.015266263,1.483900541,1.11328881,2.739100382
18.63323379,2.30122873,1.546939958,0.773017843,2.878581854
18.64322279,2.918931223,1.050116662,0.542392548,3.149141814
18.65321279,2.536892279,0.153949002,0.229285844,2.551880626
18.66320279,2.230233884,-0.297407514,-0.072189578,2.251134324
18.67319179,1.575945656,0.022721111,-0.127663575,1.581271307
18.68318179,0.922570177,0.53090847,-0.070333964,1.066745706
18.69317079,0.975251836,1.200709947,-0.047023162,1.547588995
18.70316079,0.828060461,1.468511254,-0.166712158,1.694108136
18.71314979,0.548061862,1.473591315,-0.209312633,1.586081633
18.72313979,-0.224533666,0.932736731,-0.92136682,1.330161642
18.73312879,-0.28466877,0.584084219,-1.352721912,1.500682263
18.74311879,0.448436417,1.261411647,-0.636114059,1.482192855
18.75310879,0.305490998,1.264383202,-0.101056259,1.304684635
18.76309779,0.273642091,0.824322921,-0.0866265,0.872864493
18.77308779,0.666825536,0.856406009,-0.224946991,1.108462311
18.78307679,0.64254088,1.063599756,-0.561000508,1.36338725
18.79306679,0.245510552,1.385680767,-0.744282725,1.59196212
18.80305579,-0.276855429,1.559590994,-0.860238858,1.802493797
18.81304579,-0.778574598,1.692116382,-1.024467193,2.125786745
18.82303579,-1.540409495,1.937941514,-1.338546946,2.814282618
18.83302479,-2.094604209,1.994113376,-1.955887789,3.491325249
18.84301479,-2.116440344,2.244389409,-2.494530956,3.967277181
18.85300379,-2.145782841,2.575278665,-2.95890162,4.471190334
18.86299379,-2.113418795,2.620020974,-3.304317698,4.716944388
18.87298279,-2.122419122,2.566602566,-3.675711787,4.960137982
18.88297279,-1.880611611,2.049386521,-3.600101441,4.549441233
18.89296179,-1.547382592,1.401955322,-3.303594983,3.908146801
18.90295158,-1.412610411,0.782742201,-2.818085464,3.248039287
18.91294158,-1.151024986,0.330127364,-2.593107995,2.856230325
18.92293058,-1.102490757,-0.759258614,-2.787593404,3.09235129
18.93292058,-0.813836524,-1.411900851,-3.107364764,3.508776094
18.94290958,-1.017614037,-1.486145872,-3.476224669,3.915138035
18.95289958,-1.576105577,-1.052702301,-3.504200088,3.983931372
18.96288858,-2.142661305,-0.243300889,-3.653746136,4.242647006
18.97287858,-2.320710776,0.84604942,-3.88073154,4.600171237
18.98286858,-2.333587514,1.807845059,-3.589567097,4.647464512
18.99285758,-2.575256738,2.191135892,-3.078107636,4.572501545
19.00284758,-2.556317314,2.449607967,-2.579554149,4.380574963
19.01283658,-2.102216699,2.611643668,-2.299541516,4.065450638
19.02282658,-1.39794384,2.100307583,-1.630676179,3.004104479
19.03281558,-0.774253213,1.15202369,-0.624730407,1.522141486
19.04280558,-0.24778161,-0.005056672,-0.062310269,0.255546211
19.05279558,0.03338497,-1.474373673,0.225689733,1.491920956
19.06278458,0.551406177,-2.659360456,0.319590096,2.734663533
19.07277458,1.415265339,-3.567638869,-0.308492081,3.850479249
19.08276358,1.641102934,-5.027209731,-0.279397432,5.295669877
19.09275358,2.245340751,-5.937620623,0.335129657,6.356823549
19.10274258,2.734462971,-6.379457288,0.955699332,7.006291761
19.11273258,2.189369741,-6.747886253,1.463539367,7.24356654
19.12272258,1.428811584,-6.361299929,2.484975436,6.977301932
19.13271158,0.764247166,-5.118453777,3.195609773,6.082315728
19.14270158,0.258722336,-3.283061315,4.00453376,5.184758382
19.15269058,-0.455287307,-1.511226334,4.220108614,4.505597439
19.16268058,-1.376457369,-0.401414863,3.986134619,4.236158398
19.17266958,-1.74807599,0.433000937,3.501983993,3.937912057
19.18265958,-2.309147322,1.150996919,3.323021772,4.207068927
19.19264858,-1.997274966,1.632316908,2.80517452,3.810848969
19.20263858,-0.850593292,2.194362386,2.451691038,3.398459088
19.21262858,-0.035707777,2.395656878,1.926346486,3.074289789
19.22261758,0.331892638,1.694771018,0.745962922,1.881186383
19.23260758,1.26391367,1.580925729,0.202015161,2.034112596
19.24259658,2.05315856,1.58090351,-0.032115247,2.591475905
19.25258658,2.749794078,1.370799018,-0.423831772,3.10162712
19.26257558,3.200301579,0.979484636,-0.727424325,3.424976861
19.27256558,3.554132971,0.703234102,-0.96490051,3.749324255
19.28255558,3.805220012,1.006622148,-1.047785815,4.073185805
19.29254458,3.615399511,0.975593314,-0.995659204,3.874820408
19.30253458,3.43346632,0.774319287,-0.808906445,3.61145275
19.31252358,3.38589045,0.564039379,-0.420543737,3.458215088
19.32251358,3.474933019,0.678689829,0.144952768,3.543556219
19.33250258,3.428727736,0.588084299,0.808948545,3.57161235
19.34249258,3.725635899,0.747215104,0.780734852,3.879206126
19.35248258,3.900951211,0.839539715,0.526509025,4.024855158
19.36247158,3.741181891,0.835904501,0.570193573,3.875603048
19.37246158,3.426149114,1.020004086,0.952135161,3.699387443
19.38245058,2.844720116,1.259123046,1.529359134,3.466520265
19.39244058,2.08651137,1.616443471,2.247674521,3.466765055
19.40242958,1.145659581,1.869818528,2.158822717,3.077218342
19.41241958,0.444916101,2.159234653,1.968924741,2.955826324
19.42240858,-0.899813106,1.364588106,0.768920699,1.806378522
19.43239858,-2.179134482,0.490099583,-0.348193798,2.260544982
19.44238858,-3.126779274,-0.471935207,-1.364790712,3.444143603
19.45237758,-4.09219317,-1.424655383,-2.210562974,4.864388611
19.46236758,-4.821395634,-2.041103355,-2.068213971,5.629339907
19.47235658,-5.094109479,-1.895670238,-1.855786819,5.743471229
19.48234658,-5.435203296,-2.023586851,-2.257006969,6.223376822
19.49233558,-5.029396005,-1.827508076,-2.486893322,5.900783705
19.50232558,-4.05453564,-1.228290678,-2.976250309,5.177453345
19.51231558,-2.827459428,-0.869734152,-3.525861683,4.602462919
19.52230458,-1.546734136,-0.229927722,-3.163569371,3.528940975
19.53229458,-0.616605555,0.265239642,-1.859841278,1.977261758
19.54228358,-0.033087347,0.007419532,-0.547530058,0.548579061
19.55227358,0.555538112,-1.55408584,-0.263504773,1.671298943
19.56226258,1.251276083,-3.312283945,-0.268534841,3.550919279
19.57225258,1.861644706,-4.398371508,0.16340278,4.778921782
19.58224258,2.174491208,-5.160657225,0.672449681,5.640299955
19.59223158,1.639299068,-5.767838531,0.506506285,6.01762506
19.60222158,-0.325837554,-6.010146562,0.432080585,6.034461488
19.61221058,-1.013189448,-4.765666698,1.110633882,4.997163151
