"Time (s)","Linear Acceleration x (m/s^2)","Linear Acceleration y (m/s^2)","Linear Acceleration z (m/s^2)","Absolute acceleration (m/s^2)"
8.532291627E-3,2.533648244E-1,1.026328142E-1,-6.120526206E-1,6.703250251E-1
1.846329164E-2,2.839582606E-1,1.433336744E-1,-7.205862987E-1,7.876683629E-1
2.839529165E-2,4.124918282E-1,1.640458278E-1,-7.882333213E-1,9.046393264E-1
3.832729167E-2,3.823888271E-1,1.071158744E-1,-7.396733648E-1,8.395306499E-1
4.825929162E-2,3.977442732E-1,1.633478165E-2,-5.337923169E-1,6.658840512E-1
5.819129164E-2,4.689650410E-1,-3.216728747E-2,-3.532402378E-1,5.879979674E-1
6.812229165E-2,5.843991644E-1,-3.032117531E-2,-1.925230837E-1,6.160413093E-1
7.805429166E-2,6.306029854E-1,-1.327317953E-3,-1.448928344E-1,6.470361817E-1
8.798629168E-2,6.291023706E-1,-1.403039396E-3,-2.467472380E-1,6.757632431E-1
9.791829163E-2,6.248993920E-1,-1.223339841E-2,-2.616845351E-1,6.775896266E-1
1.078502916E-1,6.474762225E-1,-5.523382232E-2,-9.191647589E-2,6.562963297E-1
1.177822917E-1,7.168063661E-1,-1.081952704E-1,-3.782973111E-2,7.259123030E-1
1.277132917E-1,7.074753063E-1,-1.686848626E-1,2.702583075E-3,7.273123097E-1
1.376452916E-1,6.493802221E-1,-1.909944753E-1,-8.745914340E-2,6.825120250E-1
1.475772916E-1,5.244596491E-1,-1.662807798E-1,-2.716996461E-1,6.136187081E-1
1.575092917E-1,4.819302915E-1,-8.869904548E-2,-4.000004214E-1,6.325540796E-1
1.674412917E-1,4.843970125E-1,-7.603485346E-2,-4.957082319E-1,6.972434409E-1
1.773722916E-1,4.904572130E-1,-9.433079123E-2,-4.196026272E-1,6.523135294E-1
1.873042916E-1,6.080696435E-1,-1.153068003E-1,-1.975511044E-1,6.496697534E-1
1.972362917E-1,6.339392605E-1,-1.142829528E-1,-5.223083854E-2,6.462721097E-1
2.071682917E-1,5.125495286E-1,-1.706118125E-1,-7.067295671E-2,5.448027869E-1
2.171002916E-1,3.870056424E-1,-1.917606068E-1,-1.737564451E-1,4.655499971E-1
2.270312916E-1,2.975173690E-1,-1.967121752E-1,-2.327431566E-1,4.258892364E-1
2.369632917E-1,2.514467184E-1,-1.814695072E-1,-2.658021444E-1,4.084206339E-1
2.468952917E-1,2.343518718E-1,-1.609427105E-1,-3.039809543E-1,4.162064108E-1
2.568272916E-1,2.726526692E-1,-1.490598527E-1,-2.859534037E-1,4.222886060E-1
2.667592916E-1,2.919928466E-1,-1.498575591E-1,-2.156499910E-1,3.927111268E-1
2.766912917E-1,3.604653499E-1,-1.404110898E-1,8.928113580E-3,3.869499371E-1
2.866222917E-1,4.334892527E-1,-1.853438723E-1,2.945973426E-1,5.559252445E-1
2.965542916E-1,4.572247821E-1,-2.302538507E-1,2.827964920E-1,5.848462986E-1
3.064862916E-1,3.572610026E-1,-2.440459706E-1,2.376045316E-1,4.936089274E-1
3.164182917E-1,2.258470235E-1,-2.172785868E-1,1.563639021E-1,3.502378223E-1
3.263502917E-1,9.326725580E-2,-2.079402910E-1,-1.677332282E-2,2.285154043E-1
3.362812917E-1,3.119533405E-2,-1.864039725E-1,-1.828897959E-1,2.629986070E-1
3.462132916E-1,9.907449111E-3,-1.353772219E-1,-3.356828034E-1,3.620885171E-1
3.561452916E-1,7.059803925E-2,2.796489358E-2,-3.324399376E-1,3.410020975E-1
3.660772917E-1,1.577723502E-1,1.257440802E-1,-1.868249720E-1,2.749677406E-1
3.760092917E-1,2.048194858E-1,7.565317646E-2,-1.463528842E-1,2.628565989E-1
3.859402916E-1,2.027713524E-1,-3.371563017E-2,-2.514431369E-1,3.247716370E-1
3.958722916E-1,9.570861451E-2,-1.015697904E-1,-4.213603002E-1,4.438705485E-1
4.058042917E-1,8.592841543E-2,-7.585534394E-2,-6.015855199E-1,6.124074326E-1
4.157362917E-1,3.594466918E-1,1.560047369E-1,-6.937657052E-1,7.967749092E-1
4.256682916E-1,7.637425509E-1,4.268049350E-1,-7.217937487E-1,1.134218388E0
4.356002916E-1,1.179757400E0,6.876139958E-1,-8.790142679E-1,1.623978637E0
4.455312917E-1,1.504797467E0,7.755205974E-1,-1.168160836E0,2.056805132E0
4.554632917E-1,1.753693118E0,7.465496904E-1,-1.483142742E0,2.415054530E0
4.653952916E-1,1.770547571E0,6.010043067E-1,-1.644152257E0,2.489835641E0
4.753272916E-1,1.635224143E0,4.107734777E-1,-1.699668061E0,2.394068580E0
4.852592917E-1,1.595432087E0,3.801144795E-1,-1.768969261E0,2.412289951E0
4.951902917E-1,1.641825065E0,4.550234516E-1,-1.897729043E0,2.550296337E0
5.051222916E-1,1.613688409E0,4.272250575E-1,-2.152991581E0,2.724313543E0
5.150542916E-1,1.729064938E0,5.205167985E-1,-2.551400975E0,3.125739950E0
5.249862917E-1,1.897673494E0,6.302517870E-1,-2.800443245E0,3.441055706E0
5.349182917E-1,1.899576471E0,7.070684132E-1,-2.632142837E0,3.322124685E0
5.448502916E-1,1.764908955E0,8.675046086E-1,-2.281096475E0,3.011788337E0
5.547812916E-1,1.377063725E0,8.384964256E-1,-1.843802512E0,2.449283254E0
5.647132916E-1,1.013595611E0,5.365508871E-1,-1.316742679E0,1.746159843E0
5.746452917E-1,6.202223504E-1,1.750626399E-1,-4.241470832E-1,7.715072520E-1
5.845772916E-1,2.394401188E-1,-2.023067911E-1,8.382217526E-1,8.949163731E-1
5.945092916E-1,-1.504101209E-1,-6.251522841E-1,1.985202219E0,2.086735833E0
6.044402916E-1,-5.070937841E-1,-9.661073025E-1,2.813479612E0,3.017643941E0
6.143722917E-1,-8.732809268E-1,-1.150508019E0,3.392035874E0,3.686759505E0
6.243042917E-1,-1.153150303E0,-1.168313083E0,3.537793511E0,3.900088974E0
6.342362916E-1,-1.361195113E0,-1.015831513E0,3.297995689E0,3.709655154E0
6.441682916E-1,-1.446555106E0,-7.364808581E-1,2.853277516E0,3.282699851E0
6.540992917E-1,-1.532742041E0,-4.904854258E-1,2.436102068E0,2.919669057E0
6.640312917E-1,-1.668724742E0,-4.141354074E-1,2.056342953E0,2.680428463E0
6.739632916E-1,-1.790070547E0,-4.140287688E-1,1.709856250E0,2.509856725E0
6.838952916E-1,-1.832508322E0,-4.227235054E-1,1.556752755E0,2.441364588E0
6.938272917E-1,-1.751265061E0,-4.258919654E-1,1.635641634E0,2.433852263E0
7.037592917E-1,-1.722225011E0,-4.148504488E-1,1.894317192E0,2.593568489E0
7.136902916E-1,-1.671031469E0,-4.500745875E-1,2.218220780E0,2.813435041E0
7.236222916E-1,-1.639810992E0,-6.231192072E-1,2.553519421E0,3.098018571E0
7.335542917E-1,-1.466551121E0,-8.875931565E-1,3.055706953E0,3.503703581E0
7.434862917E-1,-1.189960133E0,-1.092596537E0,3.686442012E0,4.024876026E0
7.534182916E-1,-8.518331936E-1,-1.149409473E0,4.216600869E0,4.452694108E0
7.633492500E-1,-5.232368501E-1,-1.122857559E0,4.502382365E0,4.669693016E0
7.732812500E-1,-1.778179941E-1,-1.000985652E0,4.574594309E0,4.686203645E0
7.832132500E-1,1.573169252E-1,-8.760419089E-1,4.754873323E0,4.837459908E0
7.931452500E-1,3.871700954E-1,-9.188156071E-1,4.955843294E0,5.055146443E0
8.030772500E-1,4.400325794E-1,-1.077655586E0,5.000303768E0,5.134005065E0
8.130092500E-1,3.294840970E-1,-1.315865597E0,4.842429530E0,5.028835431E0
8.229402500E-1,2.252831326E-1,-1.433424744E0,4.469906929E0,4.699524119E0
8.328722500E-1,1.320858973E-1,-1.425508784E0,3.843236269E0,4.101217746E0
8.428042500E-1,6.426930539E-2,-1.315470032E0,3.018028665E0,3.292884597E0
8.527362500E-1,4.526643924E-2,-1.107907837E0,1.997829282E0,2.284913711E0
8.626682500E-1,4.632727034E-2,-8.017079374E-1,8.961010015E-1,1.203278371E0
8.725992500E-1,-9.028174058E-3,-5.231762949E-1,-2.974303186E-1,6.018801690E-1
8.825312500E-1,-6.707808852E-2,-3.040059877E-1,-1.535323294E0,1.566568456E0
8.924632500E-1,-1.595519502E-1,-1.032599646E-1,-2.717200529E0,2.723838865E0
9.023952500E-1,-2.331447872E-1,4.044124380E-2,-3.724547732E0,3.732056778E0
9.123272500E-1,-2.119398596E-1,2.530571512E-1,-4.577886291E0,4.589771162E0
9.222582500E-1,-5.407040913E-2,4.380603135E-1,-5.404092600E0,5.422087908E0
9.321902500E-1,1.867396027E-1,5.734849344E-1,-6.073504652E0,6.103377377E0
9.421222500E-1,8.911357652E-3,7.857530786E-1,-6.680089542E0,6.726149240E0
9.520542500E-1,-1.550331489E-1,9.352544691E-1,-7.244903092E0,7.306665245E0
9.619862500E-1,-3.582426770E-1,9.551504975E-1,-7.763092114E0,7.829830742E0
9.719182500E-1,-5.795632978E-1,8.603366531E-1,-8.179972277E0,8.245484778E0
9.818492500E-1,-7.541611572E-1,7.026207286E-1,-8.509541817E0,8.571740597E0
9.917812500E-1,-9.420759040E-1,5.152178324E-1,-8.705765603E0,8.771733646E0
1.001713250E0,-1.132671892E0,3.467020275E-1,-8.858801270E0,8.937645543E0
1.011645250E0,-6.998652282E-1,2.975720405E-1,-8.999161343E0,9.031238306E0
1.021577250E0,-3.166572793E-1,3.952152063E-1,-9.132838633E0,9.146868775E0
1.031508250E0,-2.498702176E-1,5.518004255E-1,-9.235232150E0,9.255075996E0
1.041440250E0,-2.413470055E-1,6.837767605E-1,-8.939443145E0,8.968803865E0
1.051372250E0,-8.366203465E-2,6.117523661E-1,-8.042110720E0,8.065778643E0
1.061304250E0,-1.062715365E-1,-8.245984711E-2,-6.429573188E0,6.430980069E0
1.071236250E0,-2.349446332E-1,-1.015160545E0,-3.900873443E0,4.037643314E0
1.081168250E0,2.766727030E-2,-1.189192394E0,-9.450275785E-1,1.519217282E0
1.091099250E0,7.422727445E-1,-6.484622093E-1,2.419992989E0,2.613013228E0
1.101031250E0,1.624822824E0,-2.204917231E-1,5.693436804E0,5.924853454E0
1.110963250E0,2.639619379E0,2.265383106E-1,8.143796723E0,8.563897194E0
1.120895250E0,3.623002646E0,6.177758022E-1,1.014709666E1,1.079219003E1
1.130827250E0,4.193940277E0,3.147991072E-1,1.223795105E1,1.294046674E1
1.140758250E0,4.085682296E0,-7.933845721E-1,1.451689399E1,1.510173732E1
1.150690250E0,3.664678968E0,-2.710685561E0,1.672478391E1,1.733482290E1
1.160622250E0,3.017952651E0,-4.640097157E0,1.797659326E1,1.880947754E1
1.170554250E0,2.078991266E0,-5.767726849E0,1.785016944E1,1.887372319E1
1.180486250E0,1.363963769E0,-5.702234525E0,1.648576026E1,1.749731886E1
1.190417250E0,1.020647718E0,-4.844285436E0,1.416060911E1,1.500105575E1
1.200349250E0,7.848470525E-1,-3.826735427E0,1.114479303E1,1.180958512E1
1.210281250E0,5.692467628E-1,-2.865368681E0,7.656216706E0,8.194634452E0
1.220213250E0,3.035077684E-1,-2.044978013E0,4.225866367E0,4.704465814E0
1.230145250E0,-3.402567878E-3,-1.366916321E0,1.134899535E0,1.776645367E0
1.240077250E0,-3.353508277E-1,-7.531151634E-1,-1.248776983E0,1.496357771E0
1.250008250E0,-6.200885222E-1,-3.092041259E-1,-2.974515440E0,3.054154395E0
1.259940250E0,-8.234084165E-1,-6.725611797E-2,-4.176286072E0,4.257216245E0
1.269872250E0,-9.801586734E-1,1.376606875E-1,-4.994285814E0,5.091419476E0
1.279804250E0,-1.070225163E0,2.988013445E-1,-5.671195166E0,5.779024031E0
1.289736250E0,-1.124384340E0,4.344450532E-1,-6.254643792E0,6.369737170E0
1.299667250E0,-1.062840276E0,5.381943567E-1,-6.687096845E0,6.792388890E0
1.309599250E0,-9.070718399E-1,6.784823991E-1,-7.064015383E0,7.154259641E0
1.319531250E0,-7.853882124E-1,7.616757064E-1,-7.429749366E0,7.509870849E0
1.329463250E0,-6.122244557E-1,7.913537610E-1,-7.672788885E0,7.737748305E0
1.339395250E0,-4.151148891E-1,7.472767185E-1,-7.763566908E0,7.810487436E0
1.349327250E0,-2.533925986E-1,6.812477667E-1,-7.810776742E0,7.844522907E0
1.359258250E0,-1.864139128E-1,5.955360637E-1,-7.983233936E0,8.007586242E0
1.369190250E0,-2.541904512E-1,5.304846932E-1,-8.217612559E0,8.238639630E0
1.379122250E0,-3.977055354E-1,4.925557056E-1,-8.365176401E0,8.389097510E0
1.389054250E0,-5.579569589E-1,4.538916499E-1,-8.521048552E0,8.551350889E0
1.398986250E0,-5.420339674E-1,4.321097483E-1,-8.707769444E0,8.735317301E0
1.408917250E0,-5.233334023E-1,3.620110613E-1,-8.883672987E0,8.906434505E0
1.418849250E0,-4.965600251E-1,3.084884267E-1,-8.906046773E0,8.925211823E0
1.428781250E0,-5.390551034E-1,2.678647497E-1,-8.879312133E0,8.899691898E0
1.438713250E0,-7.545894657E-1,2.545123404E-1,-8.843839415E0,8.879621466E0
1.448645250E0,-1.138810591E0,3.079430276E-1,-8.890753380E0,8.968679621E0
1.458576250E0,-1.422676539E0,4.766713057E-1,-8.985230352E0,9.109642613E0
1.468508250E0,-1.522320402E0,7.431729233E-1,-8.851124461E0,9.011779492E0
1.478440250E0,-1.279340818E0,9.287113617E-1,-7.789588187E0,7.948389890E0
1.488372250E0,-1.105315693E0,8.460345098E-1,-5.577246197E0,5.748319087E0
1.498304250E0,-8.383818202E-1,4.643724551E-1,-2.378346781E0,2.564187837E0
1.508236250E0,-5.329310220E-1,-3.387534687E-1,1.292974917E0,1.438941806E0
1.518167250E0,7.229365870E-2,-1.249812379E0,4.122863570E0,4.308742436E0
1.528099250E0,1.115878834E0,-1.920349581E0,5.922354712E0,6.325125566E0
1.538031250E0,2.043234519E0,-2.070761310E0,7.180756212E0,7.747652515E0
1.547963250E0,3.775973994E0,-1.622620324E0,8.069355236E0,9.055681655E0
1.557895250E0,5.845350391E0,-9.188816075E-1,9.925307093E0,1.155526657E1
1.567826250E0,7.282178507E0,-4.743697686E-1,1.277185329E1,1.470970384E1
1.577758250E0,8.039487659E0,-6.412140738E-1,1.556725039E1,1.753236442E1
1.587690250E0,7.971626043E0,-1.371905896E0,1.776751788E1,1.952213204E1
1.597622250E0,7.091244696E0,-2.288801935E0,1.897283251E1,2.038363901E1
1.607554250E0,5.679100601E0,-2.677973606E0,1.861286037E1,1.964337796E1
1.617486250E0,3.936678576E0,-2.336150349E0,1.683957411E1,1.745068173E1
1.627417250E0,2.369714244E0,-1.594526938E0,1.412867864E1,1.441449346E1
1.637349250E0,1.169645152E0,-8.687886572E-1,1.088360025E1,1.098069296E1
1.647281250E0,2.474094352E-1,-2.254986025E-1,7.587608986E0,7.594989873E0
1.657213250E0,-4.569280359E-1,3.356773582E-1,4.400046151E0,4.436425210E0
1.667145250E0,-1.060200478E0,7.622898833E-1,1.565368043E0,2.038501417E0
1.677076250E0,-1.546214903E0,1.041951317E0,-7.700730389E-1,2.017289161E0
1.687008250E0,-1.922737292E0,1.280858901E0,-2.655780206E0,3.520040727E0
1.696940250E0,-2.163892837E0,1.512233809E0,-4.082282140E0,4.861513218E0
1.706872250E0,-2.341129838E0,1.660647252E0,-5.067408169E0,5.823853000E0
1.716804250E0,-2.531910451E0,1.708818807E0,-5.772123370E0,6.530546719E0
1.726735250E0,-2.629053753E0,1.636742373E0,-6.350976085E0,7.065815343E0
1.736667250E0,-2.633268134E0,1.513371093E0,-6.756022069E0,7.407309047E0
1.746599250E0,-2.612492976E0,1.382768853E0,-7.080033830E0,7.672290941E0
1.756531250E0,-2.494070195E0,1.267095286E0,-7.449077922E0,7.957052123E0
1.766463000E0,-2.282497760E0,1.232388699E0,-7.863626216E0,8.280410328E0
1.776395000E0,-2.085500387E0,1.222233182E0,-8.308914492E0,8.653393892E0
1.786326000E0,-1.975943738E0,1.231301994E0,-8.612904802E0,8.922028210E0
1.796258000E0,-1.882813088E0,1.215794959E0,-8.768913193E0,9.050800025E0
1.806190000E0,-1.791106820E0,1.189864750E0,-8.906039171E0,9.161952602E0
1.816122000E0,-1.680286295E0,1.168736494E0,-9.075275719E0,9.303221829E0
1.826054000E0,-1.500860975E0,1.080463565E0,-9.165091290E0,9.349806604E0
1.835986000E0,-1.415002214E0,8.588262442E-1,-9.091938529E0,9.241383013E0
1.845917000E0,-1.560518654E0,6.222103306E-1,-8.845930379E0,9.004046226E0
1.855849000E0,-1.721759134E0,3.816019015E-1,-8.345068996E0,8.529375773E0
1.865781000E0,-1.554129109E0,1.192652191E-1,-7.359733636E0,7.522979508E0
1.875713000E0,-1.418128428E0,-3.965773517E-1,-5.935137895E0,6.115081657E0
1.885645000E0,-1.171774123E0,-1.145418676E0,-4.009428756E0,4.331345921E0
1.895576000E0,-8.872673205E-1,-1.927452486E0,-1.227210698E0,2.451196133E0
1.905508000E0,-1.135174938E0,-2.888488864E0,2.122778433E0,3.760076906E0
1.915440000E0,-9.210159874E-1,-3.243592025E0,5.471040296E0,6.426619764E0
1.925372000E0,7.444370914E-1,-2.594672710E0,8.595126927E0,9.009035462E0
1.935304000E0,3.206881451E0,-1.563651154E0,1.131575159E1,1.186487790E1
1.945235000E0,5.498801122E0,-9.160993561E-1,1.400016151E1,1.506919289E1
1.955167000E0,7.388192035E0,-7.941224176E-1,1.660253852E1,1.818956561E1
1.965099000E0,8.116638161E0,-1.206629960E0,1.790590276E1,1.969662724E1
1.975031000E0,7.443270468E0,-2.084040191E0,1.726950585E1,1.892039458E1
1.984963000E0,6.189216957E0,-2.999193906E0,1.553477496E1,1.698913781E1
1.994895000E0,4.691535991E0,-3.644554606E0,1.364584480E1,1.488295564E1
2.004826000E0,3.245674803E0,-3.496213376E0,1.153549931E1,1.248301475E1
2.014758000E0,2.103422395E0,-2.878684545E0,9.274161742E0,9.935858620E0
2.024690000E0,1.055532938E0,-2.209451418E0,6.857381213E0,7.281449200E0
2.034622000E0,2.379769993E-1,-1.668248048E0,4.343083161E0,4.658546548E0
2.044554000E0,-3.966736481E-1,-1.219052443E0,1.882265496E0,2.277358610E0
2.054485000E0,-9.626376379E-1,-7.858197369E-1,-2.190717816E-1,1.261814696E0
2.064417000E0,-1.391854257E0,-4.236668075E-1,-1.865996203E0,2.366155884E0
2.074349000E0,-1.667192333E0,-1.366816808E-1,-3.143485354E0,3.560858370E0
2.084281000E0,-1.840805814E0,1.044373563E-1,-4.031611338E0,4.433211385E0
2.094213000E0,-1.874895958E0,3.281772443E-1,-4.663712307E0,5.037176555E0
2.104145000E0,-1.870658481E0,5.111527019E-1,-5.168087867E0,5.519943155E0
2.114076000E0,-1.893185464E0,5.893558491E-1,-5.713750616E0,6.048011047E0
2.124008000E0,-1.946346010E0,6.046601321E-1,-6.244591259E0,6.568774365E0
2.133940000E0,-1.924316332E0,5.489380307E-1,-6.708278968E0,7.000380920E0
2.143872000E0,-1.883089077E0,5.279398388E-1,-7.063423060E0,7.329167092E0
2.153804000E0,-1.836278315E0,5.276837307E-1,-7.293495208E0,7.539591535E0
2.163736000E0,-1.807522585E0,5.043889717E-1,-7.358944847E0,7.594446352E0
2.173667000E0,-1.781374714E0,4.465601551E-1,-7.432373012E0,7.655904939E0
2.183599000E0,-1.754530731E0,4.299640760E-1,-7.605778624E0,7.817359891E0
2.193531000E0,-1.777069994E0,4.138534255E-1,-7.897527203E0,8.105565270E0
2.203463000E0,-1.726266753E0,4.463290805E-1,-8.079586694E0,8.273991038E0
2.213395000E0,-1.625213710E0,6.086630994E-1,-8.192761307E0,8.374552419E0
2.223326000E0,-1.412423007E0,8.010910562E-1,-8.254499134E0,8.412695263E0
2.233258000E0,-1.215229753E0,9.520005293E-1,-8.165539595E0,8.310182022E0
2.243190000E0,-1.109331415E0,1.012218445E0,-7.969430414E0,8.109687016E0
2.253122000E0,-1.062064278E0,1.012814934E0,-7.721876845E0,7.860099021E0
2.263054000E0,-1.026782178E0,9.788584719E-1,-7.394716358E0,7.529560118E0
2.272986000E0,-9.770089245E-1,8.197878937E-1,-6.886989759E0,7.004086420E0
2.282917000E0,-8.354183051E-1,6.089066724E-1,-6.077871938E0,6.165161666E0
2.292849000E0,-6.470552230E-1,4.312640217E-1,-4.780795199E0,4.843621770E0
2.302781000E0,-3.159183374E-1,1.875678973E-1,-2.560576426E0,2.586800677E0
2.312713000E0,-1.134769142E-1,-2.627348778E-1,2.860352647E-1,4.046267400E-1
2.322645000E0,-1.258203864E-1,-7.468440246E-1,3.079657148E0,3.171418439E0
2.332577000E0,-4.505279660E-3,-1.045080967E0,5.412515514E0,5.512489340E0
2.342508000E0,5.237538171E-1,-1.412805123E0,7.380005933E0,7.532252249E0
2.352440000E0,1.608907872E0,-1.747404876E0,9.322415305E0,9.620261715E0
2.362372000E0,3.070141389E0,-1.855436863E0,1.136970969E1,1.192219412E1
2.372304000E0,4.488376529E0,-1.797404855E0,1.322880033E1,1.408464932E1
2.382236000E0,5.622004294E0,-1.714601704E0,1.424425002E1,1.540926507E1
2.392167000E0,6.465324819E0,-1.740595647E0,1.487883197E1,1.631593512E1
2.402099000E0,6.876152530E0,-1.873176877E0,1.550644637E1,1.706575941E1
2.412031000E0,6.839430261E0,-2.135382983E0,1.599949295E1,1.753058588E1
2.421963000E0,6.277090083E0,-2.336661980E0,1.570178079E1,1.707066985E1
2.431895000E0,5.247733376E0,-2.145323689E0,1.454316203E1,1.560912173E1
2.441827000E0,3.912274345E0,-1.702053579E0,1.241792133E1,1.313040925E1
2.451758000E0,2.602110368E0,-1.349679168E0,9.478833001E0,9.921738118E0
2.461690000E0,1.529257978E0,-1.189655786E0,6.308272115E0,6.599106601E0
2.471622000E0,6.204606244E-1,-1.107572645E0,3.355182627E0,3.587330346E0
2.481554000E0,-1.605987480E-1,-9.154154512E-1,8.519404900E-1,1.260785471E0
2.491486000E0,-7.971371689E-1,-6.599330577E-1,-1.079325258E0,1.495286701E0
2.501418000E0,-1.302758186E0,-4.728685325E-1,-2.654473354E0,2.994497007E0
2.511349000E0,-1.662000298E0,-3.131805979E-1,-3.956737157E0,4.303033350E0
2.521281000E0,-1.838622463E0,-2.144787572E-1,-5.086326835E0,5.412693819E0
2.531213000E0,-1.959063119E0,-1.308041145E-1,-6.010793849E0,6.323344109E0
2.541145000E0,-2.022423840E0,-5.628708858E-2,-6.778806329E0,7.074290189E0
2.551077000E0,-2.083815219E0,-1.445979886E-2,-7.431897633E0,7.718523005E0
2.561008000E0,-2.164894466E0,-1.176196665E-2,-7.997075465E0,8.284933457E0
2.570940000E0,-2.098561897E0,2.398820221E-4,-8.535909251E0,8.790091515E0
2.580872000E0,-1.887338833E0,-2.396006249E-2,-8.937264472E0,9.134403002E0
2.590804000E0,-1.755553994E0,-1.100111233E-1,-9.236847151E0,9.402840930E0
2.600736000E0,-1.663787499E0,-2.025795637E-1,-9.535435803E0,9.681619868E0
2.610668000E0,-1.620847594E0,-3.984576336E-1,-9.827289047E0,9.968025152E0
2.620599000E0,-1.735633700E0,-6.306574376E-1,-1.009709712E1,1.026457614E1
2.630531000E0,-1.862337893E0,-8.847986260E-1,-1.019360541E1,1.040003665E1
2.640463000E0,-2.055494230E0,-1.101193552E0,-1.005368622E1,1.032057607E1
2.650395000E0,-2.177683788E0,-1.311535149E0,-9.880094082E0,1.020189640E1
2.660327000E0,-2.039464381E0,-1.551762595E0,-1.007209793E1,1.039300432E1
2.670259000E0,-2.111703222E0,-1.787004705E0,-1.026559633E1,1.063179874E1
2.680190000E0,-2.215457386E0,-1.937370826E0,-1.037211857E1,1.078158155E1
2.690122000E0,-2.357306452E0,-1.922953200E0,-1.024361314E1,1.068579678E1
2.700054000E0,-2.251957752E0,-1.829983056E0,-9.712761973E0,1.013695698E1
2.709986000E0,-1.819288937E0,-2.041824902E0,-8.860277692E0,9.272722467E0
2.719918000E0,-1.271433482E0,-2.388154023E0,-6.815286523E0,7.332663440E0
2.729850000E0,-1.666544169E-1,-2.362128358E0,-3.359406071E0,4.110113530E0
2.739781000E0,8.346397483E-1,-1.972809923E0,1.618309318E0,2.684683883E0
2.749713000E0,1.953287532E0,-1.543899990E0,6.996716269E0,7.426506441E0
2.759645000E0,4.383347672E0,-7.650800284E-1,1.191744879E1,1.272103258E1
2.769577000E0,7.077701375E0,2.171756758E-1,1.597032353E1,1.746975259E1
2.779509000E0,8.904172740E0,9.553781734E-1,1.931217450E1,2.128748749E1
2.789441000E0,9.822150514E0,1.106927040E0,2.142490917E1,2.359505586E1
2.799372000E0,1.012015503E1,6.929423442E-1,2.200811748E1,2.423334360E1
2.809304000E0,9.703661367E0,-9.129345506E-2,2.155170955E1,2.363568410E1
2.819236000E0,8.623668941E0,-8.603563875E-1,2.035777127E1,2.212570293E1
2.829168000E0,6.939709425E0,-1.284066684E0,1.849041383E1,1.979150822E1
2.839100000E0,4.806957104E0,-1.435424784E0,1.591892767E1,1.669070217E1
2.849032000E0,2.867064081E0,-1.554158930E0,1.255580686E1,1.297242276E1
2.858963000E0,1.341373782E0,-1.582633555E0,8.540499900E0,8.788865179E0
2.868895000E0,1.623331784E-1,-1.434766680E0,4.664722121E0,4.883087134E0
2.878827000E0,-5.833404529E-1,-1.221424658E0,1.396820297E0,1.945063295E0
2.888759000E0,-9.899033506E-1,-1.032568291E0,-1.055971479E0,1.777971227E0
2.898691000E0,-1.250108833E0,-9.432693207E-1,-2.959612641E0,3.348407994E0
2.908623000E0,-1.397546521E0,-9.915259530E-1,-4.585153211E0,4.894884060E0
2.918554000E0,-1.514062234E0,-1.124652435E0,-6.015872741E0,6.304597718E0
2.928486000E0,-1.631296130E0,-1.282988165E0,-7.228189411E0,7.520233231E0
2.938418000E0,-1.774554229E0,-1.386634886E0,-8.257211657E0,8.558816704E0
2.948350000E0,-1.844938041E0,-1.505619293E0,-9.039757977E0,9.348150090E0
2.958282000E0,-1.856434105E0,-1.668661154E0,-9.601486536E0,9.920651255E0
2.968214000E0,-1.804722938E0,-1.876531863E0,-1.003205386E1,1.036438620E1
2.978145000E0,-1.776132977E0,-2.095777599E0,-1.033065947E1,1.068968929E1
2.988077000E0,-1.646098503E0,-2.196442825E0,-1.053280707E1,1.088457745E1
2.998009000E0,-1.414182727E0,-2.189904030E0,-1.064924502E1,1.096366781E1
3.007941000E0,-1.141644298E0,-2.090399622E0,-1.071009699E1,1.097175008E1
3.017873000E0,-8.480521647E-1,-1.904548212E0,-1.074668302E1,1.094704034E1
3.027805000E0,-5.552576648E-1,-1.619624649E0,-1.077243649E1,1.090765250E1
3.037736000E0,-2.678593411E-1,-1.317026854E0,-1.085932261E1,1.094217510E1
3.047668000E0,3.781359279E-1,-9.521199587E-1,-1.089510406E1,1.094316278E1
3.057600000E0,8.483837749E-1,-3.480221826E-1,-1.046382864E1,1.050393185E1
3.067532000E0,1.110522785E0,2.030615205E-1,-1.010840680E1,1.017125277E1
3.077464000E0,1.099678100E0,1.892840186E-1,-1.026432164E1,1.032479632E1
3.087396000E0,8.088715075E-1,-4.516585252E-1,-1.035479210E1,1.039615256E1
3.097328000E0,5.332182665E-1,-1.239416760E0,-1.012519767E1,1.021470036E1
3.107259000E0,3.610845700E-2,-1.949803907E0,-9.370961813E0,9.571727346E0
3.117191000E0,-1.489867478E0,-1.927004005E0,-7.914144405E0,8.280503077E0
3.127123000E0,-2.695406202E0,-7.224109223E-1,-5.869839699E0,6.499393066E0
3.137055000E0,-2.208658974E0,1.072131575E0,-2.916556084E0,3.812340485E0
3.146987000E0,-1.755768295E-1,2.395541834E0,2.100520422E0,3.190867271E0
3.156919000E0,2.219478662E0,2.923853117E0,9.247154623E0,9.949114091E0
3.166850000E0,3.884615845E0,2.682367788E0,1.607850754E1,1.675719970E1
3.176782000E0,4.529314640E0,1.592658167E0,1.989225572E1,2.046345740E1
3.186714000E0,4.061650532E0,1.818534500E-1,2.024545093E1,2.064965760E1
3.196646000E0,2.946850801E0,-5.291206109E-1,1.892964965E1,1.916495589E1
3.206578000E0,2.818954653E0,-4.349107839E-1,1.778822989E1,1.801545934E1
3.216510000E0,3.977375489E0,2.466764867E-2,1.722707962E1,1.768028270E1
3.226441000E0,5.079194986E0,6.175917611E-1,1.650016312E1,1.727527205E1
3.236373000E0,5.084348137E0,9.403420584E-1,1.487111130E1,1.574435742E1
3.246305000E0,3.879522628E0,7.205731425E-1,1.208173216E1,1.270976685E1
3.256237000E0,2.142531789E0,3.905266164E-1,8.692922194E0,8.961576300E0
3.266169000E0,5.350076607E-1,1.657076796E-1,5.393730165E0,5.422731537E0
3.276101000E0,-8.250380355E-1,-7.253310218E-2,2.542917250E0,2.674392819E0
3.286032000E0,-1.806938448E0,-1.611733101E-1,2.346832627E-1,1.829229244E0
3.295964000E0,-2.414391941E0,-1.145677122E-1,-1.480914368E0,2.834699556E0
3.305896000E0,-2.751583034E0,-2.949861825E-2,-2.803400767E0,3.928248366E0
3.315828000E0,-2.916591167E0,2.328843668E-2,-3.757618414E0,4.756757565E0
3.325760000E0,-2.931072089E0,5.910913758E-2,-4.454081440E0,5.332308971E0
3.335692000E0,-2.861370355E0,2.218788471E-1,-4.989497529E0,5.756019121E0
3.345624000E0,-2.728718959E0,3.660422414E-1,-5.536590507E0,6.183342828E0
3.355555000E0,-2.567285521E0,4.648697242E-1,-6.106420383E0,6.640438894E0
3.365487000E0,-2.377119158E0,5.608584569E-1,-6.624154492E0,7.060076517E0
3.375419000E0,-2.113351844E0,6.451632102E-1,-7.064012459E0,7.401537922E0
3.385351000E0,-1.987753067E0,6.792461186E-1,-7.423574122E0,7.715049597E0
3.395283000E0,-1.879720496E0,6.627126778E-1,-7.687992815E0,7.942151519E0
3.405215000E0,-1.769420374E0,5.953598432E-1,-8.072734927E0,8.285792117E0
3.415146000E0,-1.686549248E0,4.631418720E-1,-8.552344020E0,8.729349174E0
3.425078000E0,-1.697314264E0,2.737457331E-1,-8.991888576E0,9.154773214E0
3.435010000E0,-1.717287184E0,2.316498734E-2,-9.395221910E0,9.550906064E0
3.444942000E0,-1.778763640E0,-2.151282001E-1,-9.730283155E0,9.893871361E0
3.454874000E0,-1.850273625E0,-4.577557093E-1,-1.003734793E1,1.021672189E1
3.464806000E0,-1.972556154E0,-6.569054425E-1,-1.032757916E1,1.053477070E1
3.474738000E0,-2.035108790E0,-5.544712874E-1,-1.074006631E1,1.094523323E1
3.484669000E0,-1.988269376E0,-3.783854578E-1,-1.146658636E1,1.164383929E1
3.494601000E0,-2.311998425E0,-7.282394269E-1,-1.248817446E1,1.272124879E1
3.504533000E0,-2.020708267E0,-1.208813384E0,-1.286620631E1,1.307989894E1
3.514465000E0,-6.229892528E-1,-1.559092080E0,-1.216606070E1,1.228136461E1
3.524397000E0,9.124463081E-1,-1.587832753E0,-8.508656548E0,8.703505465E0
3.534329000E0,6.998631817E-1,-1.524288137E0,-1.685106740E0,2.377571770E0
3.544260000E0,1.696010920E0,-1.472240316E0,5.397564184E0,5.846164872E0
3.554192000E0,5.308347368E0,-1.332471689E0,1.319842171E1,1.428818982E1
3.564124000E0,8.517533791E0,-1.691843463E0,2.055144040E1,2.231081394E1
3.574056000E0,9.632431755E0,-3.668798624E0,2.604442238E1,2.800992256E1
3.583988000E0,8.833498614E0,-5.757549185E0,2.811476006E1,3.002698459E1
3.593920000E0,6.755552537E0,-6.866798154E0,2.693696944E1,2.860752925E1
3.603852000E0,5.146951936E0,-7.128326569E0,2.386125682E1,2.542958378E1
3.613783000E0,4.300328320E0,-6.537861283E0,2.016102883E1,2.162645457E1
3.623715000E0,3.614940505E0,-5.327127455E0,1.656303356E1,1.777020434E1
3.633647000E0,2.780429103E0,-4.136948344E0,1.303624918E1,1.395668013E1
3.643579000E0,1.859888348E0,-3.282024312E0,1.009675681E1,1.077846772E1
3.653511000E0,7.466084549E-1,-2.707332183E0,7.056247941E0,7.594584040E0
3.663443000E0,7.349072993E-3,-2.158329796E0,3.958646858E0,4.508805436E0
3.673374000E0,-5.037813364E-1,-1.583077066E0,1.144819921E0,2.017558248E0
3.683306000E0,-7.831560378E-1,-1.040926520E0,-1.208787290E0,1.777084160E0
3.693238000E0,-7.316847526E-1,-5.065471790E-1,-3.001431928E0,3.130582412E0
3.703170000E0,-6.941481131E-1,-2.061730066E-2,-4.375904167E0,4.430666310E0
3.713102000E0,-6.511764137E-1,3.680104508E-1,-5.455307778E0,5.506345917E0
3.723034000E0,-5.264791312E-1,6.356013315E-1,-6.397688906E0,6.450704820E0
3.732966000E0,-3.911787271E-1,8.514871846E-1,-7.252458279E0,7.312742462E0
3.742897000E0,-2.815075464E-1,9.410846548E-1,-7.912729379E0,7.973466815E0
3.752829000E0,-2.700923927E-1,9.621676679E-1,-8.423007703E0,8.482085550E0
3.762761542E0,-3.097376112E-1,9.578837053E-1,-8.750455872E0,8.808175552E0
3.772693542E0,-2.553154555E-1,8.679550635E-1,-8.932280890E0,8.977982729E0
3.782625542E0,-1.728673759E-1,7.702691399E-1,-9.054271935E0,9.088621345E0
3.792557542E0,-6.177320212E-2,6.744937210E-1,-9.077821596E0,9.103054578E0
3.802488542E0,-3.007807732E-3,5.893573109E-1,-8.923598945E0,8.943040267E0
3.812420542E0,1.558619186E-2,4.885340638E-1,-8.670875267E0,8.684640831E0
3.822352542E0,5.298410609E-2,4.015933491E-1,-8.477961590E0,8.487633195E0
3.832284542E0,9.569363102E-2,3.534067008E-1,-8.452387623E0,8.460313829E0
3.842216542E0,5.013373464E-2,3.388309443E-1,-8.550503317E0,8.557360970E0
3.852148542E0,-9.381725952E-2,3.489873021E-1,-8.812884255E0,8.820290398E0
3.862080542E0,-2.898858024E-1,3.501356587E-1,-9.363479131E0,9.374506397E0
3.872011542E0,-3.240043058E-1,3.806029047E-1,-9.814542117E0,9.827261792E0
3.881943542E0,-3.058408074E-1,4.385574000E-1,-1.011810733E1,1.013222420E1
3.891875542E0,-3.158931944E-1,4.604591694E-1,-1.048468916E1,1.049954847E1
3.901807542E0,-3.672041197E-1,5.857375190E-1,-1.084464025E1,1.086665310E1
3.911739542E0,-2.153089522E-1,6.332381062E-1,-1.081063635E1,1.083130679E1
3.921671542E0,6.415958239E-1,1.191941206E-1,-9.296198144E0,9.319074652E0
3.931603542E0,1.275731770E0,-1.074297237E0,-5.466009936E0,5.714794023E0
3.941534542E0,9.194261295E-1,-2.527986092E0,1.356951642E-1,2.693412569E0
3.951466542E0,5.744222796E-1,-3.017398919E0,5.895102010E0,6.647321634E0
3.961398542E0,1.713230678E0,-1.815068709E0,1.104948576E1,1.132787576E1
3.971330542E0,4.015392331E0,-6.140863553E-1,1.530610672E1,1.583595216E1
3.981262542E0,6.380495753E0,-5.774025323E-1,1.841439184E1,1.949702404E1
3.991194542E0,7.228664204E0,-1.123451271E0,1.985800974E1,2.116261515E1
4.001126542E0,6.670386672E0,-1.569417239E0,2.016790983E1,2.130027502E1
4.011057542E0,5.851220995E0,-1.907467288E0,2.030872248E1,2.122073108E1
4.020989542E0,5.261838030E0,-2.281952653E0,2.030569129E1,2.110012668E1
4.030921542E0,4.592252608E0,-2.402785803E0,1.981290666E1,2.047958579E1
4.040853542E0,3.445455743E0,-2.192181521E0,1.823882919E1,1.869041774E1
4.050785542E0,2.045415384E0,-1.945397299E0,1.532693451E1,1.558471097E1
4.060717542E0,7.368982762E-1,-1.679813256E0,1.142064830E1,1.156702205E1
4.070648542E0,-1.834373876E-1,-1.292560641E0,7.042121068E0,7.162110822E0
4.080580542E0,-6.438809158E-1,-7.510578936E-1,2.944950748E0,3.106671129E0
4.090512542E0,-8.570313683E-1,-2.072807251E-1,-3.566515034E-1,9.511405575E-1
4.100444542E0,-8.799289186E-1,3.188541878E-1,-2.834860541E0,2.985360478E0
4.110376542E0,-8.162496704E-1,7.467691802E-1,-4.701885270E0,4.830284963E0
4.120308542E0,-7.679874833E-1,9.974975681E-1,-6.121419661E0,6.249526769E0
4.130240542E0,-7.514436637E-1,1.130959973E0,-7.146732434E0,7.274580574E0
4.140171542E0,-6.819841504E-1,1.136708444E0,-7.910652448E0,8.020949484E0
4.150103542E0,-6.663592207E-1,1.101945139E0,-8.508958265E0,8.605851989E0
4.160035542E0,-5.813481604E-1,1.037170049E0,-9.015124826E0,9.093193225E0
4.169967542E0,-5.323305130E-1,9.069171079E-1,-9.443395366E0,9.501767754E0
4.179899542E0,-5.403183943E-1,7.919908883E-1,-9.796270153E0,9.843073831E0
4.189831542E0,-4.917897204E-1,6.747838160E-1,-9.942158768E0,9.977159480E0
4.199763542E0,-5.744192098E-1,4.566406453E-1,-1.011453001E1,1.014111411E1
4.209694542E0,-8.262780838E-1,9.792551324E-2,-1.032260669E1,1.035608679E1
4.219626542E0,-1.058501715E0,-3.284515518E-1,-1.048875415E1,1.054714511E1
4.229558542E0,-1.187963017E0,-6.959101716E-1,-1.067958271E1,1.076796331E1
4.239490542E0,-1.242685500E0,-8.297542535E-1,-1.067693860E1,1.078099148E1
4.249422542E0,-1.253564683E0,-7.444484934E-1,-1.055148542E1,1.065173566E1
4.259354542E0,-1.224338691E0,-5.886494324E-1,-1.031286990E1,1.040196131E1
4.269286542E0,-1.109496599E0,-4.978624924E-1,-1.017240809E1,1.024483948E1
4.279217542E0,-1.195898273E0,-6.591760625E-1,-1.016752683E1,1.025881512E1
4.289149542E0,-1.302373146E0,-9.003054419E-1,-1.009928398E1,1.022263482E1
4.299081542E0,-1.137641879E0,-1.215286105E0,-9.300323939E0,9.448130754E0
4.309013542E0,-7.162248605E-1,-1.537534858E0,-7.586615544E0,7.773913230E0
4.318945542E0,5.851776481E-2,-1.672331889E0,-5.214512420E0,5.476427490E0
4.328877542E0,9.478754649E-1,-1.907639196E0,-1.730288175E0,2.744349170E0
4.338809542E0,1.360570191E0,-2.682537650E0,2.806170008E0,4.113605426E0
4.348740542E0,1.150589953E0,-3.848381527E0,7.408857849E0,8.427637406E0
4.358672542E0,9.875264575E-1,-4.329577554E0,1.024409261E1,1.116520863E1
4.368604542E0,1.779739248E0,-3.527061532E0,1.132135088E1,1.199085571E1
4.378536542E0,3.205553256E0,-2.289948574E0,1.215035508E1,1.277304054E1
4.388468542E0,4.365942850E0,-1.451089183E0,1.366045583E1,1.441440842E1
4.398400542E0,5.689732593E0,-1.379807531E0,1.548946371E1,1.655899791E1
4.408332542E0,6.725602514E0,-1.621732716E0,1.673609243E1,1.810968073E1
4.418263542E0,7.013461525E0,-1.961292078E0,1.691950789E1,1.842023497E1
4.428195542E0,6.424644570E0,-2.409419615E0,1.626622070E1,1.765421470E1
4.438127542E0,5.201084290E0,-2.671094941E0,1.504466719E1,1.614088092E1
4.448059542E0,3.884768457E0,-2.594876193E0,1.299558648E1,1.380978191E1
4.457991542E0,2.520879094E0,-2.339156402E0,1.047465768E1,1.102474207E1
4.467923542E0,1.293192725E0,-2.038840921E0,7.630454459E0,8.003315249E0
4.477855542E0,3.685564345E-1,-1.759207627E0,4.739310958E0,5.068699407E0
4.487786542E0,-3.387175083E-1,-1.441825878E0,2.068957736E0,2.544440514E0
4.497718542E0,-8.097833808E-1,-1.101848879E0,-2.673270983E-1,1.393299628E0
4.507650542E0,-1.107257700E0,-8.093936639E-1,-2.133379435E0,2.536226632E0
4.517582542E0,-1.253546849E0,-5.690751105E-1,-3.628120714E0,3.880526523E0
4.527514542E0,-1.317527668E0,-3.410394742E-1,-4.787225382E0,4.976918117E0
4.537446542E0,-1.301365086E0,-1.176126863E-1,-5.644477483E0,5.793747482E0
4.547378542E0,-1.316431461E0,7.905070111E-4,-6.339388658E0,6.474630566E0
4.557309542E0,-1.302901150E0,2.861846611E-3,-6.935883592E0,7.057197801E0
4.567241542E0,-1.185280168E0,-8.618225768E-2,-7.403413507E0,7.498189649E0
4.577173542E0,-1.074804776E0,-1.754113533E-1,-7.711995050E0,7.788507052E0
4.587105542E0,-9.820458622E-1,-2.963447099E-1,-7.877712159E0,7.944216961E0
4.597037542E0,-8.485309786E-1,-3.667507412E-1,-7.955518718E0,8.009044201E0
4.606969542E0,-6.764099997E-1,-4.023787033E-1,-8.107071531E0,8.145185567E0
4.616901542E0,-5.364807205E-1,-3.409469055E-1,-8.418249823E0,8.442214546E0
4.626832542E0,-4.850069502E-1,-2.523129103E-1,-8.921112708E0,8.937849042E0
4.636764542E0,-4.726721026E-1,-1.582802539E-1,-9.348842965E0,9.362122427E0
4.646696542E0,-3.873138638E-1,-1.320675516E-1,-9.650972106E0,9.659643703E0
4.656628542E0,-3.239796013E-1,-1.674027143E-1,-9.874812877E0,9.881544202E0
4.666560542E0,-3.262654240E-1,-2.573746987E-1,-1.004296944E1,1.005156337E1
4.676492542E0,-4.315021496E-1,-3.208583575E-1,-9.971200719E0,9.985689158E0
4.686424542E0,-4.757589939E-1,-3.898484856E-1,-9.629597610E0,9.649221657E0
4.696356542E0,-6.120090589E-1,-4.968539938E-1,-9.146955566E0,9.180861349E0
4.706287542E0,-6.874670845E-1,-5.894871922E-1,-8.535364875E0,8.583272086E0
4.716219542E0,-4.777821305E-1,-7.362307435E-1,-7.667794193E0,7.717861055E0
4.726151542E0,-1.513113230E-1,-1.062659305E0,-5.942774359E0,6.038932604E0
4.736083542E0,5.228083223E-2,-1.434405322E0,-2.863772099E0,3.203348646E0
4.746015542E0,-5.465348616E-1,-1.655868030E0,9.865246832E-1,2.003454576E0
4.755947542E0,-7.480810761E-1,-1.253256243E0,5.562193710E0,5.750502185E0
4.765879000E0,5.035835543E-1,-7.879826219E-1,1.028283159E1,1.032526699E1
4.775810000E0,2.991867637E0,-3.942486615E-1,1.409358833E1,1.441304742E1
4.785742000E0,5.366614872E0,2.763396127E-1,1.685601414E1,1.769186626E1
4.795674000E0,6.753050514E0,8.441476133E-1,1.864262621E1,1.984600182E1
4.805606000E0,7.019541460E0,7.360094263E-1,1.944234054E1,2.068381681E1
4.815538000E0,6.494157439E0,1.088314841E-1,1.944546295E1,2.050151103E1
4.825470000E0,5.368119360E0,-6.469888571E-1,1.885479126E1,1.961475092E1
4.835402000E0,3.867573258E0,-1.141157590E0,1.745902580E1,1.791864798E1
4.845333000E0,2.233774081E0,-1.045365945E0,1.524650489E1,1.544468996E1
4.855265000E0,6.047310296E-1,-7.532341542E-1,1.237177978E1,1.240943175E1
4.865197000E0,-6.702052268E-1,-3.915891286E-1,8.986162398E0,9.019624811E0
4.875129000E0,-1.603547730E0,2.898826595E-2,5.549842637E0,5.776933350E0
4.885061000E0,-2.233926693E0,4.107564477E-1,2.363800077E0,3.278215999E0
4.894993000E0,-2.639782224E0,7.831142302E-1,-2.324355930E-1,2.763285073E0
4.904925000E0,-2.883538319E0,1.123345729E0,-2.227399154E0,3.812873701E0
4.914856000E0,-2.977903609E0,1.393270453E0,-3.744606020E0,4.983090076E0
4.924788000E0,-2.944162251E0,1.566917409E0,-4.910460715E0,5.935987362E0
4.934720000E0,-2.889539317E0,1.677039483E0,-5.937856266E0,6.813225075E0
4.944652000E0,-2.771335806E0,1.755714793E0,-6.712782494E0,7.471565123E0
4.954584000E0,-2.775401375E0,1.763653411E0,-7.321972318E0,8.026493927E0
4.964516000E0,-2.847282951E0,1.663307151E0,-7.735316085E0,8.408848067E0
4.974448000E0,-2.779880634E0,1.535258683E0,-7.975917315E0,8.584871145E0
4.984379000E0,-2.652080381E0,1.386872722E0,-8.104913909E0,8.639824984E0
4.994311000E0,-2.571051713E0,1.202929257E0,-8.193683998E0,8.671436050E0
5.004243000E0,-2.598635952E0,9.774796253E-1,-8.348648077E0,8.798198676E0
5.014175000E0,-2.666292038E0,7.369178644E-1,-8.615565285E0,9.048763803E0
5.024107000E0,-2.749383019E0,4.589714185E-1,-8.973372198E0,9.396338136E0
5.034039000E0,-2.861553958E0,1.810671457E-1,-9.331319445E0,9.761905498E0
5.043971000E0,-2.827836866E0,-3.845859915E-2,-9.619012395E0,1.002614282E1
5.053903000E0,-2.764622910E0,-2.771386530E-1,-9.622849923E0,1.001594660E1
5.063834000E0,-2.652853090E0,-4.754756963E-1,-9.366655923E0,9.746689173E0
5.073766000E0,-2.551842440E0,-4.232545057E-1,-8.959352329E0,9.325290257E0
5.083698000E0,-2.288379766E0,-2.418212512E-1,-8.515644556E0,8.821074859E0
5.093630000E0,-1.763717584E0,-1.982498467E-1,-7.713386103E0,7.914943328E0
5.103562000E0,-1.227071826E0,-1.904702176E-1,-6.451310797E0,6.569733265E0
5.113494000E0,-6.722801113E-1,-4.883639829E-1,-4.901158379E0,4.971097805E0
5.123426000E0,1.166855738E-1,-1.001858933E0,-2.827056262E0,3.001596901E0
5.133357000E0,7.914387649E-1,-1.633422324E0,-9.462139785E-2,1.817524970E0
5.143289000E0,1.304197185E0,-2.390666718E0,2.789808329E0,3.898621316E0
5.153221000E0,1.757681211E0,-3.018820670E0,5.431250578E0,6.457646965E0
5.163153000E0,2.274263418E0,-2.999129002E0,7.697699193E0,8.568641767E0
5.173085000E0,3.398980904E0,-2.610973577E0,9.791132789E0,1.068814930E1
5.183017000E0,4.824070735E0,-2.477393351E0,1.195858044E1,1.313075712E1
5.192949000E0,6.123087287E0,-2.475816357E0,1.398426177E1,1.546549196E1
5.202880000E0,6.886178166E0,-2.523696283E0,1.547415570E1,1.712419304E1
5.212812000E0,6.853114500E0,-2.825378404E0,1.611681499E1,1.773977640E1
5.222744000E0,6.274661735E0,-3.274666468E0,1.596872957E1,1.746697297E1
5.232676000E0,5.483224139E0,-3.647394598E0,1.512567568E1,1.649713003E1
5.242608000E0,4.256166639E0,-3.992243497E0,1.354884768E1,1.475209260E1
5.252540000E0,3.010598608E0,-3.920368060E0,1.166660324E1,1.267054146E1
5.262472000E0,2.030787697E0,-3.538924070E0,9.696460521E0,1.051995384E1
5.272404000E0,1.352677327E0,-2.955605252E0,7.758218459E0,8.411616493E0
5.282335000E0,7.461953491E-1,-2.287235612E0,5.799070848E0,6.278333931E0
5.292267000E0,2.409029460E-1,-1.689719608E0,3.871277761E0,4.230836571E0
5.302199000E0,-1.629829502E-1,-1.184223649E0,2.048607672E0,2.371864770E0
5.312131000E0,-5.551384547E-1,-7.776517613E-1,1.689026713E-1,9.702829887E-1
5.322063000E0,-8.815735942E-1,-4.981398331E-1,-1.658008404E0,1.942757618E0
5.331995000E0,-1.094279220E0,-3.315645363E-1,-3.355745714E0,3.545195531E0
5.341927000E0,-1.220223567E0,-1.997226872E-1,-5.014624768E0,5.164813286E0
5.351858000E0,-1.283293974E0,-2.673343342E-2,-6.491088236E0,6.616780530E0
5.361790000E0,-1.480263573E0,2.290931418E-1,-7.630235188E0,7.775869915E0
5.371722000E0,-1.555101501E0,4.991146005E-1,-8.459325929E0,8.615547065E0
5.381654000E0,-1.589782214E0,6.971660804E-1,-9.025431713E0,9.190857721E0
5.391586000E0,-1.647259175E0,8.507230266E-1,-9.441575128E0,9.621877850E0
5.401518000E0,-1.601031965E0,8.676589751E-1,-9.658745980E0,9.828911911E0
5.411450000E0,-1.464392475E0,8.593641881E-1,-9.687880901E0,9.835547188E0
5.421381000E0,-1.266661862E0,7.850578447E-1,-9.634475357E0,9.749044235E0
5.431313000E0,-9.964792755E-1,7.160896437E-1,-9.509625024E0,9.588468252E0
5.441245000E0,-8.116256922E-1,5.993159232E-1,-9.390320774E0,9.444365520E0
5.451177000E0,-8.847559413E-1,4.438699608E-1,-9.605905861E0,9.656771771E0
5.461109000E0,-1.180208732E0,2.781545337E-1,-9.921438575E0,9.995259176E0
5.471041000E0,-1.389739904E0,1.309487600E-1,-1.012993625E1,1.022566052E1
5.480973000E0,-1.727038878E0,-5.213070497E-2,-1.034014833E1,1.048351317E1
5.490905000E0,-2.127322889E0,-1.868308923E-1,-1.059215631E1,1.080528499E1
5.500836000E0,-2.348616320E0,-2.082765059E-1,-1.080845417E1,1.106264251E1
5.510768000E0,-2.489806405E0,-8.192329198E-2,-1.090083784E1,1.118186536E1
5.520700000E0,-2.475845008E0,2.095957109E-1,-1.085654635E1,1.113725000E1
5.530632000E0,-1.982300246E0,6.431716485E-1,-1.035926171E1,1.056681065E1
5.540564000E0,-8.404495418E-1,7.924633433E-1,-8.398642355E0,8.477708829E0
5.550496000E0,3.928407982E-1,5.951035890E-1,-4.313936545E0,4.372473063E0
5.560428000E0,1.039350184E0,-2.841571573E-1,1.381029891E0,1.751638563E0
5.570360000E0,1.468067451E0,-1.599228976E0,7.478196471E0,7.786923515E0
5.580291000E0,2.853363178E0,-2.110254574E0,1.294165878E1,1.341944066E1
5.590223000E0,5.322803439E0,-1.566117363E0,1.682663306E1,1.771780291E1
5.600155000E0,7.797939180E0,-1.116729531E0,1.944230546E1,2.097756377E1
5.610087000E0,8.939298719E0,-1.193981044E0,2.147266455E1,2.328973970E1
5.620019000E0,8.827126903E0,-1.613491797E0,2.209982287E1,2.385212141E1
5.629951000E0,7.960858980E0,-2.209389730E0,2.116828891E1,2.272340498E1
5.639883000E0,6.628933421E0,-2.548829954E0,1.925662361E1,2.052454251E1
5.649814000E0,5.316341681E0,-2.329278262E0,1.696822455E1,1.793347904E1
5.659746000E0,4.258467810E0,-1.576635189E0,1.445516143E1,1.515163419E1
5.669678000E0,3.212174351E0,-5.706434434E-1,1.183411778E1,1.227558722E1
5.679610000E0,2.033509869E0,2.141363662E-1,9.047606109E0,9.275785308E0
5.689542000E0,9.876689833E-1,6.604022967E-1,5.999107019E0,6.115628033E0
5.699474000E0,1.952037397E-1,9.833832666E-1,2.994743298E0,3.158106168E0
5.709406000E0,-3.310158482E-1,1.255152348E0,3.438297290E-1,1.342832004E0
5.719337000E0,-5.174320999E-1,1.527180170E0,-1.864060190E0,2.464697880E0
5.729269000E0,-5.032865158E-1,1.728387684E0,-3.711569837E0,4.125090539E0
5.739201000E0,-4.031187415E-1,1.862528220E0,-5.142136170E0,5.483892821E0
5.749133000E0,-4.509849259E-1,1.967503429E0,-6.155531732E0,6.478041992E0
5.759065000E0,-6.552313846E-1,1.842048493E0,-6.906449293E0,7.177848748E0
5.768996875E0,-8.639378071E-1,1.555304546E0,-7.594137402E0,7.799761769E0
5.778928875E0,-1.104531143E0,1.228750416E0,-8.235237236E0,8.399342174E0
5.788860875E0,-1.368945451E0,9.021897072E-1,-8.618081927E0,8.772644642E0
5.798791875E0,-1.578720160E0,6.323081066E-1,-8.739021057E0,8.902957931E0
5.808723875E0,-1.674087370E0,3.792263605E-1,-8.778297390E0,8.944545054E0
5.818655875E0,-1.664255569E0,1.988152725E-1,-8.897932007E0,9.054417050E0
5.828587875E0,-1.633716731E0,6.906292588E-3,-9.191067545E0,9.335137957E0
5.838519875E0,-1.614669134E0,-1.861532731E-1,-9.596702344E0,9.733370707E0
5.848451875E0,-1.635803310E0,-4.117938168E-1,-9.953957280E0,1.009587501E1
5.858383875E0,-1.652490971E0,-5.854157759E-1,-1.030027734E1,1.044840425E1
5.868315875E0,-1.618893162E0,-7.222398913E-1,-1.070790896E1,1.085365191E1
5.878246875E0,-1.588403733E0,-8.102287924E-1,-1.115761013E1,1.129919293E1
5.888178875E0,-1.689445374E0,-7.984846598E-1,-1.159719445E1,1.174677498E1
5.898110875E0,-1.655900190E0,-7.218785334E-1,-1.170852309E1,1.184705141E1
5.908042875E0,-1.345767673E0,-7.418891671E-1,-1.121881878E1,1.132357651E1
5.917974875E0,-8.578619653E-1,-8.266691163E-1,-1.011187771E1,1.018181614E1
5.927906875E0,-3.091422915E-1,-7.485405211E-1,-8.921241932E0,8.957926070E0
5.937838875E0,2.000426030E-1,-5.363414106E-1,-7.917867327E0,7.938532746E0
5.947769875E0,1.258034587E0,-4.697408934E-1,-6.755818001E0,6.887988414E0
5.957701875E0,2.558648891E0,-7.276036884E-1,-4.717003246E0,5.415368030E0
5.967633875E0,3.521561348E0,-1.245423605E0,-1.026230201E0,3.873709167E0
5.977565875E0,4.275988407E0,-1.721718350E0,4.201378813E0,6.236984437E0
5.987497875E0,4.906402747E0,-2.279472118E0,1.015799353E1,1.150884936E1
5.997429875E0,5.217722542E0,-3.338069581E0,1.492449404E1,1.615883224E1
6.007361875E0,5.505454084E0,-4.460192950E0,1.728388298E1,1.867982753E1
6.017293875E0,5.559022765E0,-5.220946112E0,1.736786069E1,1.896848959E1
6.027224875E0,5.599713539E0,-5.621718366E0,1.640476346E1,1.822297378E1
6.037156875E0,5.866640103E0,-5.664809421E0,1.527210400E1,1.731313641E1
6.047088875E0,5.891183206E0,-5.398072307E0,1.444304132E1,1.650595853E1
6.057020875E0,5.391850870E0,-5.114188818E0,1.400951706E1,1.585854821E1
6.066952875E0,4.544278542E0,-4.906827255E0,1.339646223E1,1.497306319E1
6.076884875E0,3.102949824E0,-4.632358660E0,1.245859222E1,1.364930638E1
6.086816875E0,1.719480767E0,-4.165530703E0,1.101633789E1,1.190243507E1
6.096748875E0,6.017363781E-1,-3.618447080E0,8.975537422E0,9.696159960E0
6.106679875E0,-3.002147627E-1,-3.107191979E0,6.377187983E0,7.100232213E0
6.116611875E0,-9.412178251E-1,-2.656051517E0,3.648387748E0,4.609906053E0
6.126543875E0,-1.456418920E0,-2.293405741E0,1.228564328E0,2.981649924E0
6.136475875E0,-1.833988837E0,-1.881957640E0,-7.219972318E-1,2.725171484E0
6.146407875E0,-2.052869415E0,-1.453485226E0,-2.265655147E0,3.385274787E0
6.156339875E0,-2.030130763E0,-1.012326911E0,-3.450445465E0,4.129383803E0
6.166271875E0,-1.919155872E0,-5.536812190E-1,-4.406448267E0,4.838027334E0
6.176202875E0,-1.895156853E0,-1.932072445E-1,-5.212130849E0,5.549347396E0
6.186134875E0,-1.887932764E0,1.048939325E-2,-6.012317049E0,6.301774071E0
6.196066875E0,-1.829203622E0,1.061923981E-1,-6.719587483E0,6.964920578E0
6.205998875E0,-1.581290596E0,2.064854307E-1,-7.141234882E0,7.317127293E0
6.215930875E0,-1.249478795E0,3.557840325E-1,-7.306254417E0,7.420857979E0
6.225862875E0,-1.012843732E0,5.045218132E-1,-7.399129252E0,7.485152528E0
6.235794875E0,-6.676964790E-1,6.439240390E-1,-7.593139867E0,7.649590172E0
6.245726875E0,-3.302115637E-1,8.270383680E-1,-7.743456579E0,7.794494976E0
6.255657875E0,-1.132599825E-1,9.706351671E-1,-7.912220086E0,7.972338876E0
6.265589875E0,-1.604651392E-2,1.063045806E0,-8.238907533E0,8.307221029E0
6.275521875E0,8.814999193E-2,1.116137062E0,-8.662168763E0,8.734225784E0
6.285453875E0,5.938607633E-2,1.071331310E0,-9.130121432E0,9.192953543E0
6.295385875E0,-1.379796714E-1,9.949657238E-1,-9.794847525E0,9.846219235E0
6.305317875E0,-5.440117881E-1,9.939807603E-1,-1.042131704E1,1.048273797E1
6.315249875E0,-1.015076637E0,1.094806200E0,-1.096155065E1,1.106275616E1
6.325181875E0,-1.304517028E0,1.184882265E0,-1.117642179E1,1.131450904E1
6.335112875E0,-1.487874601E0,1.417012341E0,-1.082853819E1,1.102174823E1
6.345044875E0,-1.273804235E0,1.648997552E0,-9.660576158E0,9.882737569E0
6.354976875E0,-8.684422097E-1,1.740176986E0,-7.311098835E0,7.565353528E0
6.364908875E0,-9.256820655E-1,1.756722268E0,-3.673979257E0,4.176252386E0
6.374840875E0,-1.207248303E0,1.634541627E0,1.342702562E0,2.435574874E0
6.384772875E0,5.732610226E-3,1.468407174E0,7.087607728E0,7.238123776E0
6.394704875E0,2.708055191E0,7.675661183E-1,1.248613612E1,1.279946545E1
6.404636875E0,5.595477816E0,-6.875910455E-1,1.726229272E1,1.815954029E1
6.414567875E0,7.668969483E0,-2.126706154E0,2.149807889E1,2.292386023E1
6.424499875E0,7.780854785E0,-3.292298162E0,2.426668171E1,2.569538421E1
6.434431875E0,6.378349240E0,-4.224924673E0,2.450516157E1,2.567170175E1
6.444363875E0,4.503033745E0,-4.384491388E0,2.227076505E1,2.314061480E1
6.454295875E0,2.692863248E0,-3.623668351E0,1.877679174E1,1.931192359E1
6.464227875E0,1.341948271E0,-2.621563762E0,1.474503247E1,1.503626962E1
6.474159875E0,4.599592325E-1,-1.865660281E0,1.045599805E1,1.063109336E1
6.484090875E0,-1.348593047E-1,-1.159881106E0,6.032875859E0,6.144843557E0
6.494022875E0,-6.950784051E-1,-3.947620105E-1,1.887765387E0,2.050031510E0
6.503954875E0,-1.088040241E0,3.241880545E-1,-1.713570986E0,2.055542503E0
6.513886875E0,-1.351585945E0,9.530721778E-1,-4.614382857E0,4.901801740E0
6.523818875E0,-1.511742935E0,1.492747086E0,-6.532526284E0,6.869320215E0
6.533750875E0,-1.501917859E0,1.814137248E0,-7.658563778E0,8.012518353E0
6.543682875E0,-1.350974618E0,1.941787520E0,-8.213207266E0,8.547072294E0
6.553614875E0,-1.217001751E0,1.883457451E0,-8.440024270E0,8.732841170E0
6.563545875E0,-1.056780149E0,1.709031208E0,-8.529297804E0,8.762790251E0
6.573477875E0,-9.473533085E-1,1.474439746E0,-8.540767118E0,8.718724323E0
6.583409875E0,-9.141893631E-1,1.242814285E0,-8.503289974E0,8.642121841E0
6.593341875E0,-8.635442895E-1,9.382585493E-1,-8.444860502E0,8.540591709E0
6.603273875E0,-7.573530060E-1,6.373957689E-1,-8.486279839E0,8.543816620E0
6.613205875E0,-7.367070723E-1,3.831408522E-1,-8.581023443E0,8.621107676E0
6.623137875E0,-6.505875260E-1,1.796020527E-1,-8.630794358E0,8.657143425E0
6.633069875E0,-5.842643130E-1,1.985670581E-2,-8.648441255E0,8.668177157E0
6.643000875E0,-6.489991298E-1,-1.780405538E-1,-8.664673126E0,8.690768590E0
6.652932875E0,-7.526942369E-1,-3.625007656E-1,-8.831439809E0,8.870867180E0
6.662864875E0,-9.177026626E-1,-3.358317612E-1,-8.949060645E0,9.002257916E0
6.672796875E0,-9.445124388E-1,-7.475153580E-2,-8.925835505E0,8.975980782E0
6.682728875E0,-7.718926924E-1,8.636279047E-2,-8.649995445E0,8.684796950E0
6.692660875E0,-4.573952284E-1,-5.599819958E-2,-7.869204460E0,7.882685140E0
6.702592875E0,-3.222675365E-1,-3.120267230E-1,-6.406716422E0,6.422400825E0
6.712524875E0,-8.979025286E-1,-6.062475780E-1,-4.536406728E0,4.663984464E0
6.722455875E0,-1.450339277E0,-6.389357062E-1,-2.124250762E0,2.650313973E0
6.732387875E0,-1.662044298E0,-3.327303980E-1,1.372219307E0,2.180845385E0
6.742319875E0,-1.663466487E0,-2.222153910E-1,5.838774612E0,6.075178138E0
6.752251875E0,-6.171817982E-1,-7.390247624E-1,8.723703107E0,8.776677439E0
6.762183875E0,2.175803616E0,-1.347389836E0,8.796192209E0,9.160926706E0
6.772116375E0,4.510417024E0,-1.645073486E0,8.444467569E0,9.713864371E0
6.782048375E0,5.820190406E0,-1.713655770E0,1.004542995E1,1.173549724E1
6.791980375E0,6.588380642E0,-2.453455727E0,1.351404622E1,1.523337290E1
6.801911375E0,6.757006155E0,-4.206922266E0,1.647673567E1,1.829858316E1
6.811843375E0,6.519492255E0,-5.816877374E0,1.802061695E1,2.002704364E1
6.821775375E0,5.913003845E0,-6.550738022E0,1.744488957E1,1.954993492E1
6.831707375E0,4.979674206E0,-6.167612665E0,1.509555901E1,1.705029334E1
6.841639375E0,4.052846964E0,-4.741415371E0,1.222172853E1,1.372141526E1
6.851571375E0,3.026796272E0,-3.215878562E0,9.469306133E0,1.044849890E1
6.861503375E0,2.087496041E0,-2.220283093E0,6.476186607E0,7.157394058E0
6.871435375E0,1.251427526E0,-1.589390451E0,3.506135516E0,4.047865995E0
6.881366375E0,3.259314018E-1,-1.147554371E0,7.571413368E-1,1.412931462E0
6.891298375E0,-3.109756860E-1,-8.188532893E-1,-1.712426686E0,1.923442679E0
6.901230375E0,-8.495206198E-1,-5.829307824E-1,-3.655787399E0,3.798193661E0
6.911162375E0,-1.301846751E0,-3.831444336E-1,-5.251157506E0,5.423675854E0
6.921094375E0,-1.594764627E0,-8.968835782E-2,-6.512630548E0,6.705645000E0
6.931026375E0,-1.765078231E0,1.945767537E-1,-7.388748105E0,7.599142046E0
6.940958375E0,-1.849763456E0,4.120520810E-1,-8.003764095E0,8.225062398E0
6.950890375E0,-1.880093256E0,5.227072386E-1,-8.459957428E0,8.682099584E0
6.960821375E0,-1.783020705E0,6.764151160E-1,-8.832560136E0,9.036084262E0
6.970753375E0,-1.530699901E0,8.574374574E-1,-9.062565041E0,9.230835623E0
6.980685375E0,-1.286138937E0,9.201109846E-1,-9.095983048E0,9.232424665E0
6.990617375E0,-1.191085722E0,8.976401348E-1,-8.993349795E0,9.116182510E0
7.000549375E0,-1.141687567E0,8.040529633E-1,-8.977624294E0,9.085575910E0
7.010481375E0,-1.155864434E0,6.575050744E-1,-9.161988757E0,9.257989712E0
7.020413375E0,-1.261530930E0,4.974651740E-1,-9.330447625E0,9.428477330E0
7.030345375E0,-1.317270390E0,2.680840934E-1,-9.408809085E0,9.504354727E0
7.040276375E0,-1.260200104E0,6.147718683E-2,-9.442297844E0,9.526220253E0
7.050208375E0,-1.401352182E0,8.594383746E-3,-9.667854187E0,9.768892792E0
7.060140375E0,-1.809481695E0,9.581905380E-2,-9.706601931E0,9.874286119E0
7.070072375E0,-2.068383832E0,2.579473604E-1,-9.420501763E0,9.648347111E0
7.080004375E0,-1.846593388E0,4.773504598E-1,-8.758729098E0,8.963989403E0
7.089936375E0,-1.330884755E0,7.915658688E-1,-7.206903791E0,7.371383385E0
7.099868375E0,-1.300826266E0,1.050643788E0,-4.935461070E0,5.211024594E0
7.109800375E0,-1.244720770E0,1.321776693E0,-1.681669162E0,2.474759502E0
7.119731375E0,-1.333307548E0,1.535062801E0,2.997607264E0,3.622123152E0
7.129663375E0,-1.452539292E0,1.605770256E0,8.110516126E0,8.394572076E0
7.139595375E0,-2.242991924E-3,1.380941891E0,1.075472294E1,1.084301946E1
7.149527375E0,2.811654112E0,9.778632758E-1,1.156413195E1,1.194113743E1
7.159459375E0,4.804275571E0,2.805610101E-1,1.278459555E1,1.366036828E1
7.169391375E0,6.035088446E0,-2.018442946E-1,1.493406009E1,1.610866799E1
7.179323375E0,6.553314890E0,-7.688823996E-1,1.727616933E1,1.849332699E1
7.189255375E0,6.261028951E0,-1.837600955E0,1.868412390E1,1.979074902E1
7.199186375E0,5.142233233E0,-2.818056813E0,1.801128830E1,1.894176637E1
7.209118375E0,3.456139483E0,-3.166809605E0,1.529447077E1,1.599670026E1
7.219050375E0,1.804036767E0,-2.777536193E0,1.171128532E1,1.217059817E1
7.228982375E0,6.293969241E-1,-2.040070298E0,8.405040963E0,8.671951390E0
7.238914375E0,-1.544831452E-1,-1.342578894E0,5.362435867E0,5.530108638E0
7.248846375E0,-6.677125588E-1,-5.914541590E-1,2.363200153E0,2.525940032E0
7.258778375E0,-9.555119285E-1,1.300368867E-1,-2.850429922E-1,1.005565585E0
7.268710375E0,-1.235711964E0,7.066526762E-1,-2.376894917E0,2.770554369E0
7.278641375E0,-1.523308728E0,1.024562064E0,-3.994080985E0,4.395779773E0
7.288573375E0,-1.615794430E0,1.213502924E0,-5.248240914E0,5.623825538E0
7.298505375E0,-1.583863078E0,1.262030867E0,-6.145398508E0,6.470492020E0
7.308437375E0,-1.535566539E0,1.233055136E0,-6.785687917E0,7.065688224E0
7.318369375E0,-1.430589137E0,1.244010625E0,-7.179821243E0,7.425899325E0
7.328301375E0,-1.363248509E0,1.237895022E0,-7.438326062E0,7.662866643E0
7.338233375E0,-1.323741796E0,1.308178554E0,-7.754444667E0,7.974649557E0
7.348165375E0,-1.288806729E0,1.498462008E0,-8.032575080E0,8.272162571E0
7.358096375E0,-1.369051578E0,1.622625586E0,-8.253002831E0,8.521694183E0
7.368028375E0,-1.518666331E0,1.607873207E0,-8.450904184E0,8.735524323E0
7.377960375E0,-1.661229927E0,1.474153233E0,-8.584606617E0,8.867259069E0
7.387892375E0,-1.863782740E0,1.302654544E0,-8.663136477E0,8.956591349E0
7.397824375E0,-2.108564436E0,1.121886118E0,-8.627695919E0,8.952195781E0
7.407756375E0,-2.303631351E0,1.044963511E0,-8.360286959E0,8.734590098E0
7.417688375E0,-2.339752526E0,1.059231594E0,-8.030317470E0,8.431038615E0
7.427620375E0,-2.199799712E0,1.102572180E0,-7.893105538E0,8.267762649E0
7.437551375E0,-2.055676371E0,1.079535173E0,-7.895665450E0,8.229989941E0
7.447483375E0,-1.991923009E0,9.660940001E-1,-7.855165880E0,8.161171845E0
7.457415375E0,-1.797914148E0,7.969916464E-1,-7.334282461E0,7.593378048E0
7.467347375E0,-1.218350412E0,7.501506981E-1,-6.090506017E0,6.256306205E0
7.477279375E0,-4.698047742E-1,7.150079088E-1,-4.060633993E0,4.149783279E0
7.487211375E0,-7.498761714E-3,4.891463038E-1,-1.147644711E0,1.247561109E0
7.497143375E0,-1.291904292E-1,1.357003079E-1,2.069465275E0,2.077929562E0
7.507075375E0,-8.914454484E-1,-6.021145467E-1,4.859381778E0,4.977028047E0
7.517006375E0,-2.427401704E0,-1.641547615E0,6.844511492E0,7.445421087E0
7.526938375E0,-3.025254361E0,-2.263540940E0,7.375100119E0,8.286608673E0
7.536870375E0,-6.355674908E-1,-2.619713118E0,6.700799210E0,7.222710912E0
7.546802375E0,2.781833897E0,-3.405067855E0,6.485036952E0,7.835099949E0
7.556734375E0,5.688783005E0,-3.496400487E0,8.736642995E0,1.099618112E1
7.566666375E0,8.109461288E0,-2.946443250E0,1.363843989E1,1.613852325E1
7.576598375E0,9.359928117E0,-2.996555350E0,1.766128801E1,2.021159797E1
7.586530375E0,9.005289810E0,-4.221364304E0,1.870877459E1,2.118804870E1
7.596462375E0,7.720044327E0,-5.606109223E0,1.774554171E1,2.014774914E1
7.606393375E0,6.079360639E0,-5.886235877E0,1.631326740E1,1.837740710E1
7.616325375E0,4.581859767E0,-5.066876657E0,1.446832702E1,1.599997390E1
7.626257375E0,3.318343707E0,-3.807900376E0,1.187057517E1,1.290046763E1
7.636189375E0,1.915448445E0,-2.629329742E0,8.968254130E0,9.540015712E0
7.646121375E0,7.919615060E-1,-1.638700898E0,6.159915975E0,6.423169660E0
7.656053375E0,-1.923646241E-1,-8.871936455E-1,3.566967609E0,3.680675840E0
7.665985375E0,-1.129973548E0,-4.274347533E-1,1.391690535E0,1.842917044E0
7.675917375E0,-1.880599332E0,-1.582296024E-1,-4.153411764E-1,1.932407500E0
7.685848375E0,-2.337024215E0,4.115007252E-2,-2.038267456E0,3.101275501E0
7.695780375E0,-2.530929581E0,2.752448130E-1,-3.441430228E0,4.280748330E0
7.705712375E0,-2.517679205E0,5.678007464E-1,-4.649439254E0,5.317743097E0
7.715644375E0,-2.398652406E0,9.430958777E-1,-5.770825873E0,6.320236899E0
7.725576375E0,-2.227677189E0,1.385187408E0,-6.755064880E0,7.246529607E0
7.735508375E0,-1.969443096E0,1.777401969E0,-7.567025033E0,8.018586641E0
7.745440375E0,-1.735319997E0,1.999284654E0,-8.100544869E0,8.522165323E0
7.755372375E0,-1.433977891E0,2.015637854E0,-8.446787159E0,8.801551106E0
7.765303125E0,-1.309405008E0,1.893699142E0,-8.743874246E0,9.041901059E0
7.775235125E0,-1.360668425E0,1.660094690E0,-8.882448580E0,9.138119375E0
7.785167125E0,-1.417174163E0,1.370406962E0,-8.796358269E0,9.014561368E0
7.795099125E0,-1.502481823E0,1.049762467E0,-8.630300853E0,8.822785597E0
7.805031125E0,-1.615371969E0,7.998925231E-1,-8.548798853E0,8.736773803E0
7.814963125E0,-1.665658608E0,6.285166258E-1,-8.532892672E0,8.716634047E0
7.824895125E0,-1.823558866E0,4.880752766E-1,-8.491796687E0,8.699091641E0
7.834827125E0,-1.974961991E0,3.241514363E-1,-8.530956075E0,8.762577279E0
7.844758125E0,-2.028966582E0,1.362671681E-1,-8.670674708E0,8.905945993E0
7.854690125E0,-1.996571838E0,4.427928306E-2,-9.156547338E0,9.371799129E0
7.864622125E0,-1.795762665E0,1.899302821E-1,-9.575537762E0,9.744319396E0
7.874554125E0,-1.189599652E0,6.846733580E-1,-9.498169159E0,9.596829805E0
7.884486125E0,-1.650943798E-1,1.736370303E0,-8.829535956E0,9.000163508E0
7.894418125E0,5.659976113E-1,3.099027804E0,-6.720517191E0,7.422242110E0
7.904350125E0,1.082290381E-2,3.919701478E0,-2.976638564E0,4.921844568E0
7.914282125E0,-1.386078377E0,3.459376502E0,1.567792298E0,4.043077014E0
7.924213125E0,-1.440964729E0,1.840352070E0,4.914446762E0,5.441972259E0
7.934145125E0,-1.013258153E-1,3.164722880E-1,5.976105242E0,5.985336707E0
7.944077125E0,1.580720784E0,-2.857057376E-2,7.083321134E0,7.257612057E0
7.954009125E0,3.598790495E0,-3.358534690E-1,1.087718001E1,1.146198654E1
7.963941125E0,5.494814490E0,-1.301596782E0,1.625965428E1,1.721230658E1
7.973873125E0,6.445975798E0,-3.062554627E0,1.975502858E1,2.100454711E1
7.983805125E0,6.349545271E0,-4.637723188E0,2.062155086E1,2.206974312E1
7.993737125E0,5.339534662E0,-5.178537426E0,1.935199287E1,2.073228179E1
8.003669125E0,3.980597305E0,-4.633577804E0,1.675410419E1,1.783298083E1
8.013600125E0,2.904149754E0,-3.349600875E0,1.370813519E1,1.440718162E1
8.023532125E0,2.015331460E0,-2.034778422E0,1.064369016E1,1.102225133E1
8.033464125E0,1.195123225E0,-1.035217006E0,7.549838312E0,7.713627701E0
8.043396125E0,5.228469139E-1,-3.660672748E-1,4.549062442E0,4.593619841E0
8.053328125E0,-3.504946777E-1,2.657201372E-2,1.563023894E0,1.602060013E0
8.063260125E0,-1.065695106E0,2.531021382E-1,-1.296151124E0,1.696989832E0
8.073192125E0,-1.590900202E0,3.480658174E-1,-3.609609599E0,3.959974081E0
8.083124125E0,-1.983938929E0,4.417513684E-1,-5.351502743E0,5.724485964E0
8.093055125E0,-2.142733226E0,6.031586767E-1,-6.497614898E0,6.868340806E0
8.102987125E0,-2.061901024E0,7.724164568E-1,-7.179175125E0,7.509235547E0
8.112919125E0,-1.892468888E0,9.585079687E-1,-7.660596855E0,7.948894275E0
8.122851125E0,-1.679980778E0,1.214611994E0,-8.070089647E0,8.332104453E0
8.132783125E0,-1.437218710E0,1.441657916E0,-8.463334780E0,8.704711986E0
8.142715125E0,-1.377471861E0,1.644668127E0,-8.720199455E0,8.980213834E0
8.152647125E0,-1.394426155E0,1.764934098E0,-8.870461788E0,9.151202598E0
8.162579125E0,-1.435901917E0,1.718443763E0,-8.877548613E0,9.155639391E0
8.172511125E0,-1.527952002E0,1.555760044E0,-8.835269151E0,9.100385025E0
8.182442125E0,-1.628829336E0,1.274238099E0,-8.737867402E0,8.979259127E0
8.192374125E0,-1.736410795E0,9.246374604E-1,-8.543933385E0,8.767489639E0
8.202306125E0,-1.800166495E0,6.363074559E-1,-8.206744339E0,8.425920676E0
8.212238125E0,-1.804696333E0,4.749033635E-1,-7.858856642E0,8.077381369E0
8.222170125E0,-1.804358072E0,4.439716293E-1,-7.608765382E0,7.832377001E0
8.232102125E0,-1.786959097E0,5.270493809E-1,-7.372924370E0,7.604670777E0
8.242034125E0,-1.651533782E0,6.242167296E-1,-7.208838050E0,7.421897089E0
8.251966125E0,-1.505607160E0,5.850330757E-1,-7.151883246E0,7.332022271E0
8.261897125E0,-1.291904876E0,5.456774771E-1,-6.877531888E0,7.019061689E0
8.271829125E0,-1.007496892E0,6.905354109E-1,-5.954704433E0,6.078683577E0
8.281761125E0,-7.705563113E-1,1.022931348E0,-4.478688862E0,4.658197022E0
8.291693125E0,-7.864996219E-1,1.266165871E0,-2.682997826E0,3.069240134E0
8.301625125E0,-9.652118745E-1,8.956859223E-1,4.445053339E-2,1.317521569E0
8.311557125E0,-1.991358899E0,-2.319264284E-1,3.876083003E0,4.363865211E0
8.321489125E0,-3.312737104E0,-1.066607272E0,5.673250462E0,6.655647902E0
8.331421125E0,-2.399673038E0,-1.032366635E0,4.563743046E0,5.258513302E0
8.341352125E0,5.216567132E-1,-1.141626610E0,4.374197364E0,4.550718584E0
8.351284125E0,3.965690121E0,-1.919497788E0,8.298155615E0,9.395241163E0
8.361216125E0,7.817226221E0,-2.362182299E0,1.451407564E1,1.665374800E1
8.371148125E0,9.740901698E0,-3.108889426E0,1.927965580E1,2.182327856E1
8.381080125E0,9.265585631E0,-5.690918993E0,2.087310743E1,2.353559538E1
8.391012125E0,8.313577062E0,-8.345102325E0,2.148286911E1,2.450040738E1
8.400944125E0,6.293949945E0,-9.251537696E0,1.968920998E1,2.264662768E1
8.410876125E0,3.565706072E0,-8.927605457E0,1.631794517E1,1.893915874E1
8.420807125E0,1.866263714E0,-7.618940706E0,1.275512558E1,1.497412523E1
8.430739125E0,1.271073293E0,-5.660650297E0,9.405439920E0,1.105083206E1
8.440671125E0,5.533720109E-1,-3.903006215E0,6.710141307E0,7.782395162E0
8.450603125E0,-1.990392208E-3,-2.527510714E0,4.237260252E0,4.933831048E0
8.460535125E0,-2.873155126E-1,-1.452651413E0,1.961747283E0,2.457885012E0
8.470467125E0,-5.211310485E-1,-5.809237987E-1,-6.109404802E-2,7.828042618E-1
8.480399125E0,-7.103139102E-1,1.242480701E-1,-1.792517753E0,1.932124046E0
8.490331125E0,-7.663537712E-1,5.939059331E-1,-3.422182363E0,3.556874258E0
8.500263125E0,-6.307059695E-1,9.344523042E-1,-4.944472214E0,5.071370289E0
8.510194125E0,-3.833944751E-1,1.245872232E0,-6.283492785E0,6.417279059E0
8.520126125E0,-9.886749968E-2,1.430550984E0,-7.282774338E0,7.422604190E0
8.530058125E0,5.572118774E-2,1.536951598E0,-7.980920777E0,8.127756241E0
8.539990125E0,1.356314296E-1,1.571310129E0,-8.369474689E0,8.516778615E0
8.549922125E0,1.658037932E-1,1.544110490E0,-8.549175414E0,8.689083287E0
8.559854125E0,3.074313962E-1,1.440234996E0,-8.480488756E0,8.607408463E0
8.569786125E0,4.472152260E-1,1.257452351E0,-8.301890232E0,8.408481985E0
8.579718125E0,6.504115248E-1,1.113112371E0,-8.080231642E0,8.182432260E0
8.589650125E0,9.374412547E-1,1.011309861E0,-7.825890625E0,7.946452530E0
8.599581125E0,1.114132125E0,8.634829668E-1,-7.500777833E0,7.632074510E0
8.609513125E0,1.049365148E0,6.233254677E-1,-7.288887017E0,7.390370478E0
8.619445125E0,9.329314435E-1,3.065201808E-1,-7.385603473E0,7.450600939E0
8.629377125E0,7.620084129E-1,8.213079505E-2,-7.798032151E0,7.835605128E0
8.639309125E0,4.761395015E-1,-7.557994008E-2,-7.950510578E0,7.965113910E0
8.649241125E0,-1.127650157E-2,-3.040071937E-1,-7.403754399E0,7.410001804E0
8.659173125E0,-4.243920815E-1,-5.203980269E-1,-6.567902523E0,6.602141039E0
8.669105125E0,-7.777402005E-1,-6.169266403E-1,-5.459045318E0,5.548572256E0
8.679036125E0,-1.520764312E0,-3.204834048E-1,-4.095234307E0,4.380225763E0
8.688968125E0,-2.018701210E0,6.471950445E-1,-2.579193960E0,3.338601127E0
8.698900125E0,-2.116617953E0,1.536676779E0,-3.928732502E-1,2.644956799E0
8.708832125E0,-1.933612382E0,1.863047306E0,2.232908401E0,3.492231670E0
8.718764125E0,-1.010780980E0,1.990186971E0,4.313357670E0,4.856704311E0
8.728696125E0,6.587648571E-2,2.080893073E0,5.833001071E0,6.193412403E0
8.738628125E0,6.212539454E-1,2.310003062E0,6.335788527E0,6.772317688E0
8.748560125E0,8.689822000E-1,2.534617127E0,5.788888507E0,6.378921867E0
8.758492125E0,1.034415426E0,2.443437547E0,4.553443760E0,5.270128309E0
8.768423417E0,1.850410158E0,2.006402615E0,3.364796035E0,4.332611402E0
8.778355417E0,2.909615732E0,1.204548351E0,4.293522161E0,5.324578197E0
8.788287417E0,3.624150747E0,3.460995450E-1,6.658103426E0,7.588451407E0
8.798219417E0,3.635637310E0,-6.194782191E-1,8.976244935E0,9.704359075E0
8.808151417E0,3.126566143E0,-1.706953399E0,1.045462512E1,1.104483102E1
8.818083417E0,2.401121978E0,-2.341681815E0,1.038649336E1,1.091458221E1
8.828015417E0,1.243865614E0,-2.212186015E0,8.798367373E0,9.157086712E0
8.837947417E0,-1.868995240E-1,-1.665737400E0,6.417172998E0,6.632474787E0
8.847878417E0,-1.346068220E0,-1.160554047E0,4.056457327E0,4.428727966E0
8.857810417E0,-2.153935614E0,-8.652681217E-1,1.939454774E0,3.024832619E0
8.867742417E0,-2.551957338E0,-5.981510847E-1,-8.228260338E-2,2.622411371E0
8.877674417E0,-2.809377791E0,-2.922789581E-1,-1.874354798E0,3.389872633E0
8.887606417E0,-3.026516483E0,-7.170634244E-2,-3.372537748E0,4.531992353E0
8.897538417E0,-3.006299735E0,8.205653541E-2,-4.588994247E0,5.486660147E0
8.907470417E0,-2.788245076E0,2.413800971E-1,-5.516526956E0,6.185842272E0
8.917402417E0,-2.406565589E0,4.225345673E-1,-6.348181116E0,6.802168542E0
8.927334417E0,-1.927659186E0,6.796202673E-1,-7.138068615E0,7.424942908E0
8.937265417E0,-1.436265468E0,9.519493662E-1,-7.971178731E0,8.155290090E0
8.947197417E0,-1.048831736E0,1.230891374E0,-8.731444235E0,8.879935812E0
8.957129417E0,-7.633461097E-1,1.448017640E0,-9.254106377E0,9.397762351E0
8.967061417E0,-7.345161206E-1,1.549964722E0,-9.425547910E0,9.580337049E0
8.976993417E0,-7.852969958E-1,1.566518190E0,-9.364185475E0,9.526732924E0
8.986925417E0,-8.878549656E-1,1.505677473E0,-9.259188777E0,9.422734630E0
8.996857417E0,-1.064214445E0,1.330117161E0,-9.061535931E0,9.220260163E0
9.006789417E0,-1.297438389E0,1.107485887E0,-8.748304682E0,8.913063792E0
9.016721417E0,-1.393639120E0,9.216976266E-1,-8.337917266E0,8.503682782E0
9.026652417E0,-1.402347085E0,7.576558918E-1,-8.206977643E0,8.360329050E0
9.036584417E0,-1.563016292E0,6.114668758E-1,-8.248015741E0,8.417046711E0
9.046516417E0,-1.596450964E0,5.707729958E-1,-8.158453354E0,8.332754564E0
9.056448417E0,-1.184045090E0,3.757448187E-1,-7.386334959E0,7.490066160E0
9.066380417E0,-7.001543730E-2,-6.136649173E-2,-4.901617970E0,4.902502089E0
9.076312417E0,9.287895682E-1,-3.834394256E-1,-5.639323747E-1,1.152256733E0
9.086244417E0,7.892144841E-1,-2.980532115E-1,5.525947990E0,5.589972845E0
9.096176417E0,-4.442810932E-1,1.552244808E-2,1.079010327E1,1.079925716E1
9.106108417E0,-1.083246986E0,8.593005996E-2,1.258389104E1,1.263072134E1
9.116039417E0,2.746440116E-1,-2.260910899E-1,1.034586340E1,1.035197740E1
9.125971417E0,3.204939298E0,-2.937276058E-1,7.954438153E0,8.580850665E0
9.135903417E0,6.372337133E0,6.769880701E-2,7.846358219E0,1.010824421E1
9.145835417E0,8.286212677E0,3.347936977E-1,1.060269884E1,1.346070689E1
9.155767417E0,9.760648330E0,-2.738811692E-1,1.554315986E1,1.835579160E1
9.165699417E0,1.067036633E1,-1.774975229E0,2.029260522E1,2.299558830E1
9.175631417E0,1.017032414E1,-3.769092990E0,2.224334161E1,2.474687457E1
9.185563417E0,8.734793521E0,-5.460613541E0,2.107965448E1,2.346202785E1
9.195494417E0,6.596926348E0,-5.490901533E0,1.827628412E1,2.019138425E1
9.205426417E0,4.131544639E0,-4.329866699E0,1.446058882E1,1.565011296E1
9.215358417E0,2.126950129E0,-3.130521492E0,1.061700347E1,1.127141714E1
9.225290417E0,8.712129128E-1,-2.439051550E0,6.700980474E0,7.184088231E0
9.235222417E0,-1.507850736E-2,-1.813050397E0,2.824972315E0,3.356761487E0
9.245154417E0,-9.406135154E-1,-1.253137983E0,-7.671266270E-1,1.744589307E0
9.255086417E0,-1.585925391E0,-6.911445446E-1,-3.665693752E0,4.053412243E0
9.265018417E0,-1.908140595E0,-2.020837564E-1,-5.716739713E0,6.030170091E0
9.274950417E0,-2.083709092E0,1.896406256E-1,-7.133696067E0,7.434206529E0
9.284881417E0,-2.102021694E0,5.252519468E-1,-8.079734629E0,8.365195544E0
9.294813417E0,-2.026383721E0,7.354276284E-1,-8.676896730E0,8.940672326E0
9.304745417E0,-2.011003205E0,7.994229917E-1,-9.077456145E0,9.331849821E0
9.314677417E0,-2.025558971E0,8.130786522E-1,-9.465468020E0,9.713859732E0
9.324609417E0,-2.118509819E0,6.565778522E-1,-9.622604340E0,9.874902157E0
9.334541417E0,-2.163788611E0,3.919562972E-1,-9.527656667E0,9.778131338E0
9.344473417E0,-2.075482937E0,9.970270135E-2,-9.255115607E0,9.485501302E0
9.354405417E0,-2.050549532E0,-1.152968600E-1,-8.946894836E0,9.179595523E0
9.364337417E0,-2.014863390E0,-2.734060829E-1,-8.806584465E0,9.038271699E0
9.374268417E0,-1.878180047E0,-3.628575189E-1,-8.839922950E0,9.044526722E0
9.384200417E0,-1.671787660E0,-4.481966081E-1,-8.764262318E0,8.933535031E0
9.394132417E0,-1.622967502E0,-4.456456140E-1,-8.520250407E0,8.684888631E0
9.404064417E0,-1.622610530E0,-3.323722561E-1,-8.435209672E0,8.596283992E0
9.413996417E0,-1.523443506E0,-2.470576521E-1,-8.418128201E0,8.558434437E0
9.423928417E0,-1.501105681E0,-9.232819296E-2,-8.294735579E0,8.429975153E0
9.433860417E0,-1.486028050E0,1.863175799E-1,-8.199941688E0,8.335588599E0
9.443792417E0,-1.627569261E0,4.482868014E-1,-8.116065719E0,8.289780787E0
9.453724417E0,-1.842104773E0,6.212587693E-1,-7.611129996E0,7.855482943E0
9.463655417E0,-1.866538533E0,8.093278096E-1,-6.357686934E0,6.675264845E0
9.473587417E0,-1.502912178E0,1.249498822E0,-3.951542491E0,4.408478238E0
9.483519417E0,-1.231255509E0,2.086446174E0,-5.466181844E-1,2.483553745E0
9.493451417E0,-1.426507781E0,2.696449345E0,3.083905735E0,4.337768793E0
9.503383417E0,-1.080981482E0,2.739789785E0,6.274781018E0,6.931655347E0
9.513315417E0,2.177824706E-1,2.578746941E0,7.849407542E0,8.265020493E0
9.523247417E0,1.473170900E0,1.984787067E0,7.064515319E0,7.484449806E0
9.533179417E0,2.318081575E0,1.221968084E0,5.087910261E0,5.723070768E0
9.543111417E0,3.353966407E0,7.186966248E-1,5.171513751E0,6.205656288E0
9.553042417E0,4.922117139E0,5.077720611E-1,7.461797955E0,8.953407079E0
9.562974417E0,6.567837034E0,8.140159244E-2,9.625297567E0,1.165287359E1
9.572906417E0,7.323156964E0,-1.021199549E0,1.233157082E1,1.437842534E1
9.582838417E0,7.111833912E0,-2.475780397E0,1.507014935E1,1.684687127E1
9.592770417E0,5.997873842E0,-3.494101946E0,1.613327256E1,1.756319227E1
9.602702417E0,3.965295142E0,-3.615091656E0,1.498111497E1,1.591308452E1
9.612634417E0,1.715894962E0,-3.060022198E0,1.223216932E1,1.272532898E1
9.622566417E0,-8.006738573E-2,-2.469024231E0,8.891146898E0,9.227945849E0
9.632498417E0,-1.223277860E0,-1.976037147E0,5.656251436E0,6.115088866E0
9.642429417E0,-2.012968015E0,-1.539272504E0,2.657375327E0,3.671926429E0
9.652361417E0,-2.440346562E0,-1.108985040E0,-5.252612293E-2,2.681025579E0
9.662293417E0,-2.660911138E0,-7.530074284E-1,-2.423152240E0,3.676837643E0
9.672225417E0,-2.647416349E0,-5.056971035E-1,-4.366204805E0,5.131109752E0
9.682157417E0,-2.410239541E0,-2.810358223E-1,-5.837012261E0,6.321309035E0
9.692089417E0,-2.053229165E0,-7.670238622E-2,-6.966946925E0,7.263606729E0
9.702021417E0,-1.574197631E0,1.814012410E-1,-7.750515338E0,7.910846515E0
9.711953417E0,-1.051064788E0,4.372628995E-1,-8.278984349E0,8.356884461E0
9.721884417E0,-6.129908064E-1,7.452667382E-1,-8.697448524E0,8.750816594E0
9.731816417E0,-2.857104519E-1,1.126536847E0,-9.260709638E0,9.333351956E0
9.741748417E0,-2.040135933E-1,1.437762063E0,-9.701155835E0,9.809240838E0
9.751680417E0,-2.023968382E-1,1.603451104E0,-9.813788996E0,9.945977799E0
9.761612417E0,-2.830135699E-1,1.636334091E0,-9.565061890E0,9.708145802E0
9.771544000E0,-4.608246204E-1,1.510062738E0,-9.223249451E0,9.357402377E0
9.781476000E0,-6.181863499E-1,1.320629177E0,-8.940185156E0,9.058318079E0
9.791408000E0,-6.873872700E-1,1.201346343E0,-8.692677196E0,8.802179907E0
9.801340000E0,-7.675327161E-1,1.127584522E0,-8.299960066E0,8.411295407E0
9.811271000E0,-8.434020934E-1,1.022081675E0,-7.882642531E0,7.993249108E0
9.821203000E0,-1.000104842E0,8.996791320E-1,-7.583297249E0,7.701690035E0
9.831135000E0,-1.094278050E0,9.132964933E-1,-7.411200244E0,7.547015568E0
9.841067000E0,-1.227072119E0,9.229085849E-1,-7.353698725E0,7.512280025E0
9.850999000E0,-1.463252853E0,8.091831641E-1,-7.256788142E0,7.446936313E0
9.860931000E0,-1.523587056E0,7.513832912E-1,-7.420126603E0,7.612107013E0
9.870863000E0,-1.116811173E0,1.105764175E0,-6.930210038E0,7.106179901E0
9.880795000E0,-5.612340309E-1,1.878816078E0,-4.967809621E0,5.340792631E0
9.890727000E0,-2.439458370E-1,2.511833159E0,-1.292228812E0,2.835254961E0
9.900659000E0,1.561580801E-1,2.412546853E0,2.793265788E0,3.694198347E0
9.910590000E0,1.020627399E0,1.087851303E0,5.680081764E0,5.872685041E0
9.920522000E0,2.437293731E0,-9.980887216E-1,7.885920480E0,8.314103899E0
9.930454000E0,4.507701577E0,-2.798826782E0,1.115995603E1,1.235707989E1
9.940386000E0,6.759780659E0,-4.307879999E0,1.552620528E1,1.747328003E1
9.950318000E0,8.539784786E0,-5.602452959E0,1.966901370E1,2.216270523E1
9.960250000E0,9.372575060E0,-6.537522730E0,2.152772193E1,2.437267278E1
9.970182000E0,9.300694653E0,-7.169025528E0,1.980535674E1,2.302498650E1
9.980114000E0,8.701985378E0,-7.390749607E0,1.685064757E1,2.035416549E1
9.990045000E0,7.717922373E0,-6.955315644E0,1.510620445E1,1.833412541E1
9.999977000E0,6.369104792E0,-6.005353600E0,1.379977276E1,1.634207746E1
1.000990900E1,4.930412584E0,-4.563137859E0,1.211898477E1,1.385644208E1
1.001984100E1,3.091710598E0,-3.309192522E0,1.036126380E1,1.130775031E1
1.002977300E1,1.549782289E0,-2.349839558E0,8.178719804E0,8.649568123E0
1.003970500E1,4.208071536E-1,-1.545740548E0,5.763726768E0,5.982218549E0
1.004963700E1,-5.679862493E-1,-8.952689427E-1,3.326745279E0,3.491611234E0
1.005956900E1,-1.159350544E0,-3.528475973E-1,1.070770197E0,1.617140663E0
1.006950100E1,-1.460947881E0,3.064920411E-2,-9.018570006E-1,1.717164562E0
1.007943200E1,-1.684262110E0,2.966187982E-1,-2.620147274E0,3.128880519E0
1.008936400E1,-1.951457499E0,5.124016672E-1,-3.981031753E0,4.463110537E0
1.009929600E1,-2.082465389E0,7.620223001E-1,-5.044879432E0,5.510730311E0
1.010922800E1,-2.068960222E0,1.009535085E0,-5.758170159E0,6.201312851E0
1.011916000E1,-1.874699492E0,1.195952506E0,-6.082943228E0,6.476650283E0
1.012909200E1,-1.448457059E0,1.446451464E0,-6.186181667E0,6.516064250E0
1.013902400E1,-1.028429777E0,1.660959786E0,-6.302389231E0,6.598224401E0
1.014895600E1,-6.976656519E-1,1.771306247E0,-6.358508468E0,6.637386016E0
1.015888800E1,-5.213206445E-1,1.747301234E0,-6.350416507E0,6.607013442E0
1.016882000E1,-3.895084700E-1,1.581276562E0,-6.383365567E0,6.587830324E0
1.017875100E1,-2.401758447E-1,1.271498240E0,-6.472087124E0,6.600174539E0
1.018868300E1,-1.491535543E-1,9.306792422E-1,-6.445001652E0,6.513559467E0
1.019861500E1,-8.271398172E-2,6.591484344E-1,-6.563215395E0,6.596750305E0
1.020854700E1,-6.384808660E-2,4.204097987E-1,-6.966678538E0,6.979644033E0
1.021847900E1,-1.929850137E-1,1.257142594E-1,-7.591582754E0,7.595075773E0
1.022841100E1,-3.267932814E-1,-1.641282736E-1,-8.352317789E0,8.360319634E0
1.023834300E1,-4.956097063E-1,-4.764333241E-1,-9.146809385E0,9.172608115E0
1.024827500E1,-7.032919890E-1,-7.545337710E-1,-9.811424382E0,9.865494880E0
1.025820700E1,-8.361316654E-1,-8.416638623E-1,-1.035365774E1,1.042140791E1
1.026813800E1,-5.849466830E-1,-7.161603950E-1,-1.019483216E1,1.023668164E1
1.027807000E1,-9.940178901E-2,-4.049255311E-1,-9.007897668E0,9.017542115E0
1.028800200E1,4.944271070E-1,-1.121379018E-1,-7.251456651E0,7.269157904E0
1.029793400E1,9.687468088E-1,4.521271795E-2,-4.786229602E0,4.883493459E0
1.030786600E1,1.219135693E0,2.659508099E-1,-1.337745293E0,1.829367142E0
1.031779800E1,8.739330375E-1,7.974295297E-1,2.280827503E0,2.569402052E0
1.032773000E1,8.996490920E-1,1.393839679E0,4.695943914E0,4.980366129E0
1.033766200E1,1.414577999E0,1.823486799E0,5.147840713E0,5.641489079E0
1.034759400E1,1.980520939E0,1.933423371E0,3.689831058E0,4.612531014E0
1.035752500E1,2.925046534E0,1.925015075E0,1.184172267E0,3.696463745E0
1.036745700E1,4.022821804E0,1.967270125E0,2.667283434E-1,4.486021736E0
1.037738900E1,5.044583563E0,1.882662961E0,2.240406870E0,5.831952168E0
1.038732100E1,5.694044330E0,1.440215408E0,4.821915743E0,7.599159999E0
1.039725300E1,5.597833659E0,4.205679294E-1,6.006810726E0,8.221581001E0
1.040718500E1,4.733079873E0,-1.186008658E0,6.403493437E0,8.050676358E0
1.041711700E1,3.431979958E0,-2.598307924E0,6.126267003E0,7.487378572E0
1.042704900E1,1.935007674E0,-3.391493544E0,4.735985062E0,6.138080943E0
1.043698100E1,2.367385590E-1,-3.593865970E0,3.220343496E0,4.831410766E0
1.044691200E1,-1.071864211E0,-3.450529372E0,2.135245281E0,4.196941535E0
1.045684400E1,-1.964744566E0,-3.149888055E0,1.399443358E0,3.967424566E0
1.046677600E1,-2.643094672E0,-2.698606968E0,1.094162568E0,3.932635343E0
1.047670800E1,-3.149095465E0,-2.124387441E0,1.167049865E0,3.973893511E0
1.048664000E1,-3.558644097E0,-1.431519283E0,1.378709131E0,4.076031666E0
1.049657200E1,-3.871335357E0,-7.570564060E-1,1.419475919E0,4.192288603E0
1.050650400E1,-4.149273982E0,-2.489495918E-1,1.171718282E0,4.318723678E0
1.051643600E1,-4.378032846E0,8.046207279E-2,8.527058905E-1,4.461026012E0
1.052636800E1,-4.493861510E0,3.564360335E-1,4.601314330E-1,4.531397009E0
1.053629900E1,-4.516980523E0,5.670115185E-1,-1.757082456E-1,4.555819191E0
1.054623100E1,-4.422002445E0,7.691430393E-1,-9.493743986E-1,4.587700774E0
1.055616300E1,-4.239156211E0,9.751701213E-1,-1.653607789E0,4.653581510E0
1.056609500E1,-3.912339833E0,1.186673121E0,-2.111828937E0,4.601566856E0
1.057602700E1,-3.591188530E0,1.387843798E0,-2.472976949E0,4.575845327E0
1.058595900E1,-3.281962624E0,1.569795408E0,-2.806781627E0,4.594949335E0
1.059589100E1,-2.901223515E0,1.682236634E0,-3.062607252E0,4.541649608E0
1.060582300E1,-2.400308045E0,1.774387730E0,-3.480204869E0,4.584948905E0
1.061575500E1,-2.115375858E0,1.747446245E0,-4.278041657E0,5.082324647E0
1.062568600E1,-2.019945205E0,1.696430165E0,-5.264748774E0,5.888602006E0
1.063561800E1,-2.050422355E0,1.768054172E0,-6.119460844E0,6.691640188E0
1.064555000E1,-2.036518553E0,1.774617964E0,-6.671444433E0,7.197558445E0
1.065548200E1,-1.955656824E0,1.516154075E0,-6.859680923E0,7.292361700E0
1.066541400E1,-1.883339630E0,9.837588041E-1,-6.703964308E0,7.032630161E0
1.067534600E1,-1.799587913E0,2.324966233E-1,-6.354841679E0,6.608826228E0
1.068527800E1,-1.240706364E0,-7.063713520E-1,-5.367379687E0,5.554014537E0
1.069521000E1,-1.052152955E0,-1.633925769E0,-3.037632625E0,3.606099169E0
1.070514200E1,-1.229934038E0,-2.160431578E0,7.587639391E-1,2.599216239E0
1.071507400E1,-4.726868668E-1,-1.874869646E0,4.695356269E0,5.077887312E0
1.072500500E1,2.002246853E0,-1.477849258E0,7.564097332E0,7.962951672E0
1.073493700E1,5.154073260E0,-1.798736266E0,9.856419876E0,1.126716185E1
1.074486900E1,7.762001608E0,-2.028627882E0,1.259840032E1,1.493598643E1
1.075480100E1,9.053813514E0,-2.135815677E0,1.490075552E1,1.756604004E1
1.076473300E1,8.938026364E0,-2.892232252E0,1.612116532E1,1.865865198E1
1.077466554E1,8.311831083E0,-4.010297360E0,1.646528214E1,1.887523608E1
1.078459754E1,7.563103305E0,-5.148906076E0,1.599627932E1,1.842804160E1
1.079452954E1,6.595328304E0,-5.893821470E0,1.502777458E1,1.743758859E1
1.080446154E1,5.169319875E0,-5.742087393E0,1.375290148E1,1.577452803E1
1.081439254E1,3.768523764E0,-4.810018998E0,1.214435818E1,1.359498031E1
1.082432454E1,2.679388924E0,-3.473903909E0,1.036206370E1,1.125253293E1
1.083425654E1,1.574754286E0,-2.354329488E0,8.333202657E0,8.801419483E0
1.084418854E1,7.022821748E-1,-1.542829219E0,5.967796349E0,6.203879070E0
1.085412054E1,-2.568038642E-2,-9.664699030E-1,3.563770351E0,3.692584823E0
1.086405254E1,-6.248194313E-1,-5.857022895E-1,1.265698825E0,1.528214648E0
1.087398454E1,-9.955577543E-1,-2.957847659E-1,-7.981735879E-1,1.309849208E0
1.088391654E1,-9.439016971E-1,6.819256783E-2,-2.535809374E0,2.706645493E0
1.089384854E1,-8.299078891E-1,5.268708947E-1,-3.804527117E0,3.929474091E0
1.090377954E1,-7.816426322E-1,9.611074215E-1,-4.830252119E0,4.986584824E0
1.091371154E1,-6.978599256E-1,1.344469591E0,-5.683226981E0,5.881638877E0
1.092364354E1,-7.184090880E-1,1.687137478E0,-6.260355352E0,6.523388201E0
1.093357554E1,-7.482269642E-1,1.842308694E0,-6.780534766E0,7.066087788E0
1.094350754E1,-8.111318949E-1,1.823615877E0,-7.298336118E0,7.566321425E0
1.095343954E1,-8.429477647E-1,1.694343002E0,-7.731251101E0,7.959497643E0
1.096337154E1,-8.819159487E-1,1.494058763E0,-8.015895898E0,8.201498300E0
1.097330354E1,-9.028386019E-1,1.287312181E0,-8.123579391E0,8.274347848E0
1.098323554E1,-9.047054717E-1,1.089367120E0,-8.311491360E0,8.431257400E0
1.099316754E1,-7.373355018E-1,1.002728926E0,-8.586678286E0,8.676414750E0
1.100309854E1,-5.320937008E-1,1.056819106E0,-8.640929337E0,8.721562368E0
1.101303054E1,-2.526390387E-1,1.216291899E0,-8.668762668E0,8.757319149E0
1.102296254E1,-3.858241394E-2,1.236321244E0,-8.716036822E0,8.803367350E0
1.103289454E1,1.513083994E-2,1.101338636E0,-8.729609964E0,8.798821845E0
1.104282654E1,-1.712941825E-2,9.177505367E-1,-8.805800938E0,8.853512841E0
1.105275854E1,-1.281914324E-1,7.817536562E-1,-8.872044044E0,8.907341766E0
1.106269054E1,-1.511104712E-1,6.691866419E-1,-8.923469136E0,8.949801482E0
1.107262254E1,4.794658363E-2,5.172468893E-1,-7.825667846E0,7.842889803E0
1.108255454E1,2.782016037E-1,4.738185223E-1,-5.201381913E0,5.230322545E0
1.109248554E1,-2.518596049E-1,7.378083953E-1,-2.078844793E0,2.220222999E0
1.110241754E1,-1.374510684E0,1.288793134E0,6.941884589E-1,2.008025145E0
1.111234954E1,-2.126073047E0,1.895711753E0,3.359844028E0,4.404822532E0
1.112228154E1,-1.866817883E0,2.008867655E0,6.170804075E0,6.752731388E0
1.113221354E1,-4.638056771E-1,1.853101339E0,7.716459984E0,7.949393371E0
1.114214554E1,6.274356218E-1,1.382454127E0,6.912729203E0,7.077476944E0
1.115207754E1,1.212182622E0,8.788648716E-1,4.283121718E0,4.537281325E0
1.116200954E1,2.565336059E0,3.541827359E-1,3.244197212E0,4.151049272E0
1.117194154E1,4.400474167E0,-5.846586711E-1,6.112771044E0,7.554599162E0
1.118187354E1,6.079144292E0,-1.676135942E0,1.138665726E1,1.301619724E1
1.119180454E1,6.634452608E0,-2.718116495E0,1.558165325E1,1.715202719E1
1.120173654E1,5.568205233E0,-3.722950565E0,1.611580576E1,1.745234843E1
1.121166854E1,3.426125726E0,-3.858524107E0,1.391269652E1,1.483878938E1
1.122160054E1,1.252978500E0,-3.194582125E0,1.070899303E1,1.124534757E1
1.123153254E1,-3.537857831E-1,-2.567734880E0,7.363840136E0,7.806700221E0
1.124146454E1,-1.371923730E0,-2.175167000E0,3.792621601E0,4.582303439E0
1.125139654E1,-2.040546847E0,-1.643488890E0,2.657758319E-1,2.633538296E0
1.126132854E1,-2.359478547E0,-8.479924500E-1,-3.042629655E0,3.942565843E0
1.127126054E1,-2.535453864E0,-6.938035659E-2,-5.775690756E0,6.308085577E0
1.128119154E1,-2.524338892E0,5.136039278E-1,-7.818622536E0,8.232067431E0
1.129112354E1,-2.317242500E0,9.183785277E-1,-9.079859936E0,9.415778692E0
1.130105554E1,-2.065155877E0,1.212026356E0,-9.496060068E0,9.793315756E0
1.131098754E1,-1.815464127E0,1.318048947E0,-9.354591948E0,9.619852054E0
1.132091954E1,-1.681141158E0,1.343132333E0,-8.872908847E0,9.130101394E0
1.133085154E1,-1.551608667E0,1.421580040E0,-8.342485111E0,8.603803641E0
1.134078354E1,-1.196234780E0,1.637313938E0,-8.121352771E0,8.370671742E0
1.135071554E1,-9.035141015E-1,1.904254535E0,-8.122805219E0,8.391810752E0
1.136064754E1,-7.789008728E-1,2.093255987E0,-8.357994266E0,8.651270158E0
1.137057954E1,-8.447525078E-1,2.191002137E0,-8.717959971E0,9.028672285E0
1.138051054E1,-9.892594260E-1,2.215222328E0,-8.926036064E0,9.249862917E0
1.139044254E1,-1.237156811E0,2.191627935E0,-9.036430326E0,9.380344504E0
1.140037454E1,-1.523396144E0,2.114021789E0,-9.151559663E0,9.515296538E0
1.141030654E1,-1.595587038E0,1.845620119E0,-9.333203418E0,9.646807641E0
1.142023854E1,-1.281127581E0,1.568649500E0,-9.287391068E0,9.505660523E0
1.143017054E1,-1.199758020E0,1.461364787E0,-9.040919234E0,9.236515952E0
1.144010254E1,-1.421454617E0,1.259724871E0,-8.646503488E0,8.852652853E0
1.145003454E1,-1.625908505E0,7.866789852E-1,-7.470871664E0,7.686115125E0
1.145996654E1,-1.680373857E0,-7.845677018E-2,-4.547894753E0,4.849036858E0
1.146989754E1,-2.148180492E0,-1.039550451E0,-7.290507281E-1,2.495367614E0
1.147982954E1,-2.781596500E0,-1.251376363E0,2.695424328E0,4.070446437E0
1.148976154E1,-2.570121421E0,-3.885979854E-1,5.176500841E0,5.792468685E0
1.149969354E1,1.152243546E-1,9.702053236E-1,7.976852869E0,8.036464193E0
1.150962554E1,4.287147526E0,1.731064393E0,1.256898999E1,1.339237572E1
1.151955754E1,7.356289626E0,8.929235514E-1,1.738614844E1,1.889948325E1
1.152948954E1,8.099709887E0,-1.194756896E0,2.140334932E1,2.291584837E1
1.153942154E1,6.980956854E0,-3.401703952E0,2.436437699E1,2.557202014E1
1.154935354E1,5.828216879E0,-4.709376138E0,2.607867069E1,2.713380549E1
1.155928454E1,5.359395314E0,-5.253343195E0,2.579148352E1,2.686114955E1
1.156921654E1,5.310954641E0,-5.283784969E0,2.367164098E1,2.482883826E1
1.157914854E1,4.795069130E0,-4.410089328E0,2.010560892E1,2.113473648E1
1.158908054E1,3.646416652E0,-3.087560245E0,1.602218950E1,1.671944793E1
1.159901254E1,2.355767903E0,-2.047554150E0,1.141882747E1,1.183772534E1
1.160894454E1,8.308191776E-1,-1.318094848E0,6.774478805E0,6.951345022E0
1.161887654E1,-7.097160324E-1,-8.742986347E-1,2.701500170E0,2.926806813E0
1.162880854E1,-1.505394906E0,-6.470927913E-1,-4.570721698E-1,1.701134290E0
1.163874054E1,-1.801819796E0,-3.787324535E-1,-2.521910543E0,3.122503104E0
1.164867254E1,-1.734052174E0,-1.848626282E-1,-4.057723834E0,4.416586221E0
1.165860354E1,-1.408794225E0,-1.102468757E-1,-5.256370298E0,5.443003239E0
1.166853554E1,-1.073463132E0,1.114294385E-1,-6.404006238E0,6.494307932E0
1.167846754E1,-7.663862233E-1,4.044576808E-1,-7.383405504E0,7.434084389E0
1.168839954E1,-5.925103489E-1,4.828189586E-1,-8.334655690E0,8.369627717E0
1.169833154E1,-5.855654646E-1,2.851459032E-1,-9.526846243E0,9.549083435E0
1.170826354E1,-6.641729468E-1,2.976751707E-2,-1.071760715E1,1.073820818E1
1.171819554E1,-6.928839451E-1,-2.408383343E-1,-1.163141001E1,1.165451802E1
1.172812754E1,-7.086495003E-1,-4.359827978E-1,-1.211968994E1,1.214821590E1
1.173805954E1,-6.942501470E-1,-4.980089651E-1,-1.213372326E1,1.216376736E1
1.174799154E1,-6.720725352E-1,-5.576437674E-1,-1.192026598E1,1.195221272E1
1.175792254E1,-7.373597677E-1,-5.854013041E-1,-1.162585633E1,1.166391570E1
1.176785454E1,-7.041838355E-1,-5.716724803E-1,-1.139927088E1,1.143529889E1
1.177778579E1,-7.240634917E-1,-6.449062251E-1,-1.129920163E1,1.134072879E1
1.178771779E1,-8.328203872E-1,-7.092853119E-1,-1.138664557E1,1.143907220E1
1.179764979E1,-1.004041772E0,-5.987360255E-1,-1.156475877E1,1.162369262E1
1.180758179E1,-1.232508421E0,-5.252065578E-1,-1.173510921E1,1.181133808E1
1.181751379E1,-1.267798122E0,-4.849067435E-1,-1.179555656E1,1.187339889E1
1.182744579E1,-1.125841028E0,-3.037494776E-1,-1.150681988E1,1.156575486E1
1.183737779E1,-8.773945892E-1,-4.715267792E-2,-1.075785822E1,1.079368139E1
1.184730979E1,-9.152178884E-1,-1.852283167E-1,-9.836315979E0,9.880538717E0
1.185724079E1,-1.438133361E0,-5.878187623E-1,-8.547461010E0,8.687511046E0
1.186717279E1,-1.937505458E0,-6.827239694E-1,-5.495507385E0,5.866910672E0
1.187710479E1,-2.433166328E0,-5.807311329E-1,-4.253451777E-1,2.537413160E0
1.188703679E1,-2.621852030E0,-5.294085497E-1,4.586480529E0,5.309443014E0
1.189696879E1,-2.178671675E0,-2.775356059E-1,8.361108493E0,8.644753988E0
1.190690079E1,-8.331877385E-1,7.318262552E-1,1.051427608E1,1.057259537E1
1.191683279E1,9.065423745E-1,1.733368050E0,1.143243394E1,1.159857447E1
1.192676479E1,1.953972387E0,2.561641204E0,1.189697769E1,1.232550574E1
1.193669679E1,2.252255522E0,2.767293918E0,1.210153083E1,1.261656130E1
1.194662779E1,2.606302237E0,2.075867976E0,1.258437519E1,1.301800822E1
1.195655979E1,3.289451153E0,1.136398761E0,1.333320705E1,1.377992385E1
1.196649179E1,3.894917470E0,1.334013015E-1,1.432758454E1,1.484816005E1
1.197642379E1,4.130017054E0,-8.920347016E-1,1.578575149E1,1.634144170E1
1.198635579E1,3.894026354E0,-1.966854972E0,1.651790475E1,1.708429504E1
1.199628779E1,2.970631135E0,-2.515246764E0,1.487421150E1,1.537508645E1
1.200621979E1,1.533785623E0,-2.175869251E0,1.137035873E1,1.167784068E1
1.201615179E1,1.976117693E-1,-1.730060719E0,7.290889689E0,7.495947769E0
1.202608379E1,-7.183490078E-1,-1.359597799E0,3.437882137E0,3.766107415E0
1.203601579E1,-1.332450785E0,-9.002572755E-1,1.381539184E-1,1.613993421E0
1.204594679E1,-1.734838479E0,-5.051045613E-1,-2.605517541E0,3.170728121E0
1.205587879E1,-1.982007593E0,-1.790021284E-1,-4.888096869E0,5.277678170E0
1.206581079E1,-1.907423580E0,2.100121422E-1,-6.568893042E0,6.843443987E0
1.207574279E1,-1.520890612E0,6.097286448E-1,-7.663080168E0,7.836304928E0
1.208567479E1,-1.001253819E0,8.868677364E-1,-8.367381386E0,8.473612857E0
1.209560679E1,-5.881271298E-1,1.063657351E0,-8.689697455E0,8.774286429E0
1.210553879E1,-4.109926021E-1,1.240717766E0,-8.834915394E0,8.931070793E0
1.211547079E1,-2.410536580E-1,1.362288396E0,-9.001535897E0,9.107227078E0
1.212540279E1,-7.396143079E-3,1.514043961E0,-9.214645273E0,9.338204931E0
1.213533479E1,8.308221012E-2,1.659209422E0,-9.406279580E0,9.551857102E0
1.214526579E1,7.098914489E-2,1.731676304E0,-9.449679953E0,9.607298970E0
1.215519779E1,-7.250401229E-2,1.551877347E0,-9.550170202E0,9.675708295E0
1.216512979E1,-1.918766740E-1,1.338583053E0,-9.655615380E0,9.749847672E0
1.217506179E1,-4.031321901E-1,1.228743984E0,-9.517952628E0,9.605402104E0
1.218499379E1,-6.045389485E-1,1.152319998E0,-9.177395586E0,9.269190820E0
1.219492579E1,-5.985499379E-1,1.068516826E0,-8.831157389E0,8.915678946E0
1.220485779E1,-6.704318064E-1,1.018017348E0,-8.659125872E0,8.744501072E0
1.221478979E1,-8.326464325E-1,1.025444701E0,-8.649533515E0,8.749815252E0
1.222472179E1,-1.027023522E0,9.319226526E-1,-8.464638709E0,8.577491802E0
1.223465279E1,-1.183612542E0,5.814848390E-1,-8.132193509E0,8.238424275E0
1.224458479E1,-1.216636885E0,3.630532544E-2,-7.595721998E0,7.692627383E0
1.225451679E1,-1.405770630E0,-6.318281963E-1,-6.987962987E0,7.155908373E0
1.226444879E1,-1.884274161E0,-1.457284746E0,-6.512479690E0,6.934447322E0
1.227438079E1,-2.661683555E0,-2.210029123E0,-5.711138665E0,6.677266875E0
1.228431279E1,-2.906563193E0,-2.082232816E0,-2.657164827E0,4.454697297E0
1.229424479E1,-2.058356296E0,-1.166280810E0,1.962489295E0,3.073825923E0
1.230417679E1,-3.953931078E-1,-9.185168874E-1,7.110866198E0,7.180837491E0
1.231410879E1,1.600141288E0,-1.252518032E0,1.243258849E1,1.259755969E1
1.232404079E1,3.597228119E0,-1.649519416E0,1.701627697E1,1.747039342E1
1.233397179E1,4.929854175E0,-2.245381535E0,2.034764155E1,2.105639373E1
1.234390379E1,5.827470775E0,-2.706636072E0,2.211172780E1,2.302637185E1
1.235383579E1,6.607066004E0,-2.805392621E0,2.253773254E1,2.365318028E1
1.236376779E1,7.255778328E0,-2.644409126E0,2.208626201E1,2.339748252E1
1.237369979E1,7.633507875E0,-2.161270069E0,2.080815188E1,2.226927739E1
1.238363179E1,7.333084366E0,-1.382489795E0,1.896356350E1,2.037896330E1
1.239356379E1,6.298044165E0,-7.832772213E-1,1.689358601E1,1.804638833E1
1.240349579E1,4.667951539E0,-5.027881503E-1,1.481228597E1,1.553854508E1
1.241342779E1,2.697729008E0,-5.092018880E-1,1.223518649E1,1.253941054E1
1.242335879E1,9.056351790E-1,-5.130895921E-1,9.278157145E0,9.336360962E0
1.243329079E1,-4.343466738E-1,-4.014854680E-1,6.232965240E0,6.260966642E0
1.244322279E1,-1.206070966E0,-8.310168866E-2,3.409365267E0,3.617358786E0
1.245315479E1,-1.610149528E0,3.413396556E-1,1.022113761E0,1.937475369E0
1.246308679E1,-1.829869620E0,6.713106430E-1,-9.761429518E-1,2.179893545E0
1.247301879E1,-2.016306922E0,8.631435359E-1,-2.668062868E0,3.453848554E0
1.248295079E1,-2.290811916E0,8.796814352E-1,-4.215810326E0,4.877982715E0
1.249288279E1,-2.468253276E0,8.465383936E-1,-5.523949996E0,6.109249139E0
1.250281479E1,-2.571742854E0,7.721254116E-1,-6.308825846E0,6.856480330E0
1.251274679E1,-2.574885732E0,6.636517406E-1,-6.560848442E0,7.079209168E0
1.252267779E1,-2.500370570E0,6.064399880E-1,-6.657663131E0,7.137513629E0
1.253260979E1,-2.262382607E0,5.913441217E-1,-6.746194069E0,7.139971803E0
1.254254179E1,-1.918362990E0,5.085527740E-1,-6.821360611E0,7.104203197E0
1.255247379E1,-1.543934489E0,3.982997587E-1,-6.965717255E0,7.145879462E0
1.256240579E1,-1.279997460E0,3.339210373E-1,-7.214974703E0,7.335240741E0
1.257233779E1,-1.045961046E0,3.051640836E-1,-7.514078495E0,7.592663252E0
1.258226979E1,-8.260703614E-1,3.093982534E-1,-7.789284132E0,7.839073083E0
1.259220179E1,-6.969096069E-1,2.688731021E-1,-8.118889339E0,8.153179738E0
1.260213379E1,-6.118098150E-1,1.642738327E-1,-8.587113903E0,8.610448439E0
1.261206579E1,-6.379531547E-1,1.981466799E-1,-9.023488684E0,9.048181826E0
1.262199679E1,-8.326341534E-1,2.207064439E-1,-9.522409961E0,9.561290835E0
1.263192879E1,-9.449590199E-1,2.161744863E-1,-1.013226812E1,1.017853311E1
1.264186079E1,-1.016673658E0,2.210816158E-1,-1.074569016E1,1.079594180E1
1.265179279E1,-1.148893091E0,2.513545516E-1,-1.098576748E1,1.104853934E1
1.266172479E1,-1.220221228E0,1.905948912E-1,-1.065936187E1,1.073066921E1
1.267165679E1,-1.414264442E0,1.953744784E-2,-9.973380561E0,1.007317455E1
1.268158879E1,-1.588123944E0,-2.537899169E-1,-8.876650481E0,9.021167925E0
1.269152079E1,-1.928276067E0,-6.775591238E-1,-7.087210118E0,7.376034314E0
1.270145279E1,-2.361697711E0,-1.006735730E0,-4.726609637E0,5.378844817E0
1.271138479E1,-2.687256353E0,-1.188494236E0,-1.745063505E0,3.417471564E0
1.272131579E1,-2.769704432E0,-1.256944812E0,2.024030070E0,3.653473776E0
1.273124779E1,-2.386892779E0,-1.294640642E0,6.435495248E0,6.984908777E0
1.274117979E1,-1.267810547E0,-9.453084641E-1,9.817421286E0,9.943978700E0
1.275111179E1,3.211296684E-1,-3.877407105E-1,1.043351316E1,1.044565288E1
1.276104379E1,1.642036734E0,5.089233778E-2,8.458065269E0,8.616132703E0
1.277097629E1,3.027422509E0,8.956881881E-1,6.816098117E0,7.511773287E0
1.278090829E1,4.437614511E0,1.889082473E0,7.909405822E0,9.263895271E0
1.279084029E1,6.291269581E0,2.252804575E0,1.076071750E1,1.266681659E1
1.280077229E1,8.054250709E0,1.823625817E0,1.399180000E1,1.624706228E1
1.281070429E1,8.711929738E0,6.329045226E-1,1.713223076E1,1.923048670E1
1.282063529E1,7.909058497E0,-1.118671318E0,1.898593729E1,2.059782626E1
1.283056729E1,6.096252075E0,-2.242685530E0,1.845203271E1,1.956198964E1
1.284049929E1,3.843061145E0,-2.092609724E0,1.532550896E1,1.593798479E1
1.285043129E1,1.950962386E0,-1.293106187E0,1.080780981E1,1.105835118E1
1.286036329E1,6.490500006E-1,-7.372556873E-1,6.502649935E0,6.576417568E0
1.287029529E1,-4.106490782E-1,-3.662709041E-1,2.728617802E0,2.783548482E0
1.288022729E1,-1.194730876E0,1.331353263E-1,-5.272253090E-1,1.312658908E0
1.289015929E1,-1.641329221E0,5.903714008E-1,-3.039057006E0,3.504050155E0
1.290009129E1,-1.786283451E0,8.325674220E-1,-4.824274510E0,5.211295581E0
1.291002329E1,-1.819218478E0,9.638955201E-1,-6.194097043E0,6.527287999E0
1.291995429E1,-1.730041715E0,1.057882130E0,-7.146186304E0,7.428333436E0
1.292988629E1,-1.616635991E0,1.099405839E0,-7.632082323E0,7.878507836E0
1.293981829E1,-1.509181563E0,1.077829613E0,-7.788528671E0,8.006280318E0
1.294975029E1,-1.400114619E0,9.847110231E-1,-7.800410798E0,7.986011856E0
1.295968229E1,-1.334229362E0,8.432661456E-1,-7.755605924E0,7.914587104E0
1.296961429E1,-1.301264222E0,6.487395135E-1,-7.720492224E0,7.856217392E0
1.297954629E1,-1.376977479E0,5.199176416E-1,-7.749454653E0,7.887992694E0
1.298947829E1,-1.422315912E0,4.526241563E-1,-7.902124284E0,8.041854225E0
1.299941029E1,-1.365349413E0,3.545898483E-1,-8.051394929E0,8.174036535E0
1.300934229E1,-1.364355386E0,2.770882208E-1,-8.215714552E0,8.332839199E0
1.301927329E1,-1.387594268E0,2.445413759E-1,-8.513339583E0,8.629146493E0
1.302920529E1,-1.405400794E0,2.555677629E-1,-8.904070998E0,9.017923631E0
1.303913729E1,-1.512399285E0,3.571849888E-1,-9.132390736E0,9.263665218E0
1.304906929E1,-1.561728736E0,5.419691364E-1,-9.219081556E0,9.366119363E0
1.305900129E1,-1.673048612E0,6.114385168E-1,-9.133202330E0,9.305285246E0
1.306893329E1,-1.795137890E0,5.999889377E-1,-9.028402684E0,9.224671365E0
1.307886529E1,-1.782915455E0,6.092539971E-1,-8.798306562E0,8.997787301E0
1.308879729E1,-1.712033753E0,5.041958309E-1,-8.166386856E0,8.359135559E0
1.309872929E1,-1.454330002E0,3.918642401E-1,-7.014804631E0,7.174685871E0
1.310866129E1,-1.518734744E0,-9.295077525E-2,-5.101095148E0,5.323191409E0
1.311859229E1,-2.193180956E0,-6.509170897E-1,-2.273230800E0,3.225106825E0
1.312852429E1,-3.345980572E0,-4.476773753E-1,7.541709512E-1,3.459013565E0
1.313845629E1,-4.008014315E0,4.684145987E-1,3.251828998E0,5.182468795E0
1.314838829E1,-3.132998958E0,1.215041911E0,4.668913406E0,5.752457014E0
1.315832029E1,-9.524317615E-1,1.917406531E0,5.718131935E0,6.105784707E0
1.316825229E1,2.119791090E0,2.667726653E0,8.205056832E0,8.884437933E0
1.317818429E1,4.898736463E0,2.669184071E0,1.256289953E1,1.374585782E1
1.318811629E1,6.774477051E0,1.743393686E0,1.722694747E1,1.859302773E1
1.319804829E1,8.356785647E0,4.574738004E-1,2.152526610E1,2.309506938E1
1.320798029E1,9.678462791E0,-7.749295170E-1,2.431475751E1,2.618168426E1
1.321791129E1,1.005505447E1,-2.108267983E0,2.411822558E1,2.621521923E1
1.322784329E1,9.333282355E0,-3.204791948E0,2.178676996E1,2.391744544E1
1.323777529E1,7.899958475E0,-3.393133396E0,1.864149653E1,2.052871382E1
1.324770729E1,5.912105128E0,-2.730168484E0,1.496682321E1,1.632215071E1
1.325763929E1,3.854493914E0,-1.973277700E0,1.113646192E1,1.194871258E1
1.326757129E1,2.099977508E0,-1.543687444E0,7.164061242E0,7.623427703E0
1.327750329E1,7.039907312E-1,-1.106470738E0,3.371543137E0,3.617621258E0
1.328743529E1,-5.820286301E-1,-7.342561387E-1,9.804552734E-2,9.420734201E-1
1.329736729E1,-1.487939213E0,-5.435233994E-1,-2.498669615E0,2.958501416E0
1.330729929E1,-2.096744436E0,-5.169871268E-1,-4.379098501E0,4.882634186E0
1.331723029E1,-2.356644401E0,-4.428648245E-1,-5.558850857E0,6.053984220E0
1.332716229E1,-2.412054078E0,-4.219020447E-1,-6.355871959E0,6.811249120E0
1.333709429E1,-2.436116248E0,-4.487357213E-1,-6.816821417E0,7.252935982E0
1.334702629E1,-2.352920163E0,-5.224573432E-1,-7.063304946E0,7.463207871E0
1.335695829E1,-2.174267406E0,-6.677516621E-1,-7.198182669E0,7.548984354E0
1.336689029E1,-2.089628813E0,-8.637805170E-1,-7.191173027E0,7.538277977E0
1.337682229E1,-2.040348041E0,-1.092686000E0,-7.176012951E0,7.540036120E0
1.338675429E1,-1.977897585E0,-1.294765042E0,-7.080970554E0,7.465161710E0
1.339668629E1,-1.953107876E0,-1.528147884E0,-7.092601835E0,7.513645395E0
1.340661829E1,-1.926266379E0,-1.728924458E0,-7.194845663E0,7.646272691E0
1.341654929E1,-1.867475841E0,-1.878649140E0,-7.291838692E0,7.758073222E0
1.342648129E1,-1.744049013E0,-1.924646261E0,-7.452538889E0,7.892167388E0
1.343641329E1,-1.493028483E0,-1.873746688E0,-7.671475600E0,8.036889858E0
1.344634529E1,-1.217194125E0,-1.780491199E0,-7.906019699E0,8.194928793E0
1.345627729E1,-9.555414569E-1,-1.653807179E0,-8.249300959E0,8.467532343E0
1.346620929E1,-7.521355355E-1,-1.510143430E0,-8.658180962E0,8.821016870E0
1.347614129E1,-5.976763639E-1,-1.275514107E0,-9.042882144E0,9.151932623E0
1.348607329E1,-5.640898110E-1,-1.080718942E0,-9.658156580E0,9.734790151E0
1.349600529E1,-7.018135205E-1,-1.014825207E0,-1.025428899E1,1.032825518E1
1.350593729E1,-9.333891343E-1,-9.609001377E-1,-1.087501186E1,1.095720892E1
1.351586929E1,-1.163871026E0,-8.887101209E-1,-1.152429838E1,1.161696409E1
1.352580029E1,-1.512000359E0,-7.944611907E-1,-1.203452525E1,1.215512697E1
1.353573229E1,-2.114389579E0,-5.997588497E-1,-1.229782420E1,1.249267121E1
1.354566429E1,-2.610713084E0,-4.341908455E-1,-1.173311882E1,1.202790180E1
1.355559629E1,-2.720956196E0,-2.527596375E-1,-1.019241492E1,1.055238418E1
1.356552829E1,-2.511645756E0,1.641819218E-1,-7.405464710E0,7.821523360E0
1.357546029E1,-1.906027996E0,1.116463117E0,-2.544481380E0,3.369542715E0
1.358539229E1,5.075754485E-1,2.198732156E0,3.341776716E0,4.032310448E0
1.359532429E1,3.694572858E0,2.833684374E0,1.014476713E1,1.116225496E1
1.360525629E1,6.633523486E0,2.519027281E0,1.626156398E1,1.774225452E1
1.361518729E1,8.667186259E0,1.166044144E0,1.998019784E1,2.181027470E1
1.362511929E1,9.422696807E0,-7.496321963E-1,2.204829253E1,2.398908850E1
1.363505129E1,9.860407677E0,-2.598414928E0,2.374902303E1,2.584560880E1
1.364498329E1,9.878364476E0,-4.014341002E0,2.453029056E1,2.674756388E1
1.365491529E1,9.114519306E0,-4.148652715E0,2.368092635E1,2.571132152E1
1.366484729E1,7.402596066E0,-2.989878707E0,2.146415334E1,2.290082274E1
1.367477929E1,5.418494877E0,-1.936070113E0,1.775481539E1,1.866392037E1
1.368471129E1,3.545775545E0,-1.319074548E0,1.320705571E1,1.373822413E1
1.369464329E1,1.679088201E0,-8.071989115E-1,8.082524920E0,8.294462994E0
1.370457529E1,1.309741223E-1,-3.756559776E-1,3.043847045E0,3.069735570E0
1.371450729E1,-1.147285399E0,-5.739414923E-2,-1.554788675E0,1.933112956E0
1.372443829E1,-2.178533681E0,4.483286820E-2,-5.325368612E0,5.753917782E0
1.373437029E1,-2.987109465E0,5.984617911E-2,-7.902967452E0,8.448863774E0
1.374430229E1,-3.294847840E0,1.229691379E-2,-9.424536926E0,9.983890513E0
1.375423429E1,-3.126208878E0,5.076844990E-3,-1.007054024E1,1.054461893E1
1.376416629E1,-2.384538105E0,3.589820574E-1,-1.021733575E1,1.049803982E1
1.377409837E1,-1.432889286E0,8.302799182E-1,-1.002547224E1,1.016133013E1
1.378403037E1,-6.361174214E-1,1.167329362E0,-9.745042697E0,9.835301743E0
1.379396237E1,-1.047180775E-1,1.555418420E0,-9.588425025E0,9.714328943E0
1.380389437E1,1.024446800E-1,1.813943266E0,-9.365028643E0,9.539635558E0
1.381382638E1,1.557996458E-1,1.867978702E0,-9.104282001E0,9.295244414E0
1.382375738E1,5.602685094E-2,1.652516991E0,-8.937790722E0,9.089447420E0
1.383368937E1,-2.526491252E-1,1.255839689E0,-8.780936238E0,8.873883373E0
1.384362137E1,-7.471387973E-1,8.590796480E-1,-8.654243447E0,8.728812283E0
1.385355337E1,-1.280329143E0,5.253116615E-1,-8.517235583E0,8.628933714E0
1.386348538E1,-1.687588006E0,3.306802180E-1,-8.313808027E0,8.489800150E0
1.387341737E1,-1.930163840E0,2.152392241E-1,-8.012316817E0,8.244336307E0
1.388334937E1,-2.135856023E0,6.577825248E-3,-7.829760897E0,8.115853617E0
1.389328137E1,-2.258599020E0,-2.030920722E-1,-8.017217953E0,8.331764497E0
1.390321337E1,-2.384746850E0,-2.851665147E-1,-8.283807718E0,8.624952625E0
1.391314537E1,-2.549379008E0,-2.575781818E-1,-8.676717805E0,9.047160423E0
1.392307637E1,-2.647226315E0,-2.618662374E-1,-9.049828636E0,9.432697357E0
1.393300837E1,-2.880738088E0,-2.705622165E-1,-9.077697051E0,9.527667059E0
1.394294038E1,-3.294114892E0,-3.266699052E-1,-8.290577039E0,8.927013711E0
1.395287237E1,-3.522825516E0,-3.225313190E-1,-5.706659113E0,6.714185304E0
1.396280437E1,-3.718855175E0,-3.497320546E-1,-1.123642475E0,3.900611328E0
1.397273637E1,-4.090377902E0,-7.399505959E-1,3.673026161E0,5.547056827E0
1.398266837E1,-3.137489912E0,-1.276362831E0,6.861032799E0,7.651582588E0
1.399260037E1,-2.525587857E-2,-7.369825492E-1,1.047687027E1,1.050278971E1
1.400253237E1,4.064734061E0,-2.266259457E-1,1.478615360E1,1.533635421E1
1.401246438E1,7.260392951E0,-4.602181180E-1,1.867963908E1,2.004629699E1
1.402239637E1,9.586684309E0,-9.712521214E-1,2.228216712E1,2.427638396E1
1.403232737E1,1.120101284E1,-1.562463731E0,2.449081718E1,2.697599132E1
1.404225937E1,1.167280713E1,-2.663794692E0,2.370910058E1,2.656071683E1
1.405219137E1,1.108675591E1,-3.677509806E0,2.117884898E1,2.418643999E1
1.406212337E1,9.453573614E0,-3.757085148E0,1.806725551E1,2.073430647E1
1.407205537E1,7.156237083E0,-3.147250669E0,1.481955172E1,1.675517918E1
1.408198737E1,5.025425745E0,-2.463075567E0,1.156408985E1,1.284717164E1
1.409191938E1,3.322638779E0,-1.925981619E0,8.194834145E0,9.050118249E0
1.410185137E1,1.643947020E0,-1.405584104E0,4.907015535E0,5.362558153E0
1.411178337E1,2.970531732E-1,-1.060533403E0,1.816114776E0,2.123969060E0
1.412171537E1,-7.267276293E-1,-9.079856135E-1,-7.324561465E-1,1.374431856E0
1.413164637E1,-1.382606593E0,-7.911190684E-1,-2.748813500E0,3.177018419E0
1.414157837E1,-1.718798689E0,-6.544791403E-1,-4.243554779E0,4.624972329E0
1.415151037E1,-1.808872853E0,-4.802943867E-1,-5.260870315E0,5.583857105E0
1.416144237E1,-1.814245567E0,-3.860551775E-1,-5.983735274E0,6.264631945E0
1.417137438E1,-1.826717532E0,-3.941271856E-1,-6.588377718E0,6.848281108E0
1.418130637E1,-1.703753218E0,-4.293347329E-1,-7.049239469E0,7.264907462E0
1.419123837E1,-1.681964154E0,-5.286996844E-1,-7.356136429E0,7.564474201E0
1.420117037E1,-1.713039620E0,-6.083223894E-1,-7.712590297E0,7.923926423E0
1.421110238E1,-1.575429200E0,-5.056235017E-1,-8.017453011E0,8.186402450E0
1.422103437E1,-1.382776016E0,-4.251131163E-1,-8.257887595E0,8.383644685E0
1.423096637E1,-1.229213515E0,-3.578561030E-1,-8.415699268E0,8.512521426E0
1.424089737E1,-1.109975047E0,-2.632368247E-1,-8.398434779E0,8.475555732E0
1.425082937E1,-1.058435788E0,-1.735334469E-1,-8.323370563E0,8.392192664E0
1.426076137E1,-1.023742796E0,-7.442920804E-2,-8.450601298E0,8.512711162E0
1.427069337E1,-9.860335171E-1,4.584816411E-2,-8.823609803E0,8.878651593E0
1.428062537E1,-8.867729384E-1,1.915699875E-1,-9.051010358E0,9.096364868E0
1.429055738E1,-8.341403961E-1,3.318851830E-1,-9.096646707E0,9.140837997E0
1.430048937E1,-7.952660599E-1,3.942355053E-1,-9.130868706E0,9.173910457E0
1.431042137E1,-7.777097949E-1,4.068135971E-1,-9.204382825E0,9.246133950E0
1.432035337E1,-6.790087947E-1,4.789932351E-1,-9.133386517E0,9.171108806E0
1.433028538E1,-7.729601017E-1,4.699597254E-1,-8.838131363E0,8.884306132E0
1.434021637E1,-1.106563050E0,4.042232805E-1,-8.524328256E0,8.605350106E0
1.435014837E1,-1.196601985E0,3.539895585E-1,-7.845108669E0,7.943733061E0
1.436008037E1,-1.458851946E0,3.197194661E-1,-5.861077062E0,6.048362908E0
1.437001238E1,-2.073316251E0,6.320832811E-1,-3.440328612E0,4.066205911E0
1.437994437E1,-2.373644157E0,9.133555502E-1,-6.645810825E-1,2.628701764E0
1.438987637E1,-2.127349786E0,8.238146518E-1,3.265507389E0,3.983444013E0
1.439980837E1,-1.063892117E0,8.345880005E-1,6.685972425E0,6.821336441E0
1.440974038E1,1.959767416E-1,1.080524522E0,8.104091790E0,8.178156508E0
1.441967237E1,1.493560141E0,1.459607553E0,7.100453476E0,7.401190152E0
1.442960437E1,3.198620797E0,1.888579027E0,6.783019833E0,7.733515617E0
1.443953637E1,5.146052635E0,2.039012683E0,8.371023032E0,1.003560945E1
1.444946738E1,7.418839631E0,1.716312160E0,1.046844794E1,1.294501105E1
1.445939937E1,9.452018255E0,8.028428820E-1,1.336121170E1,1.638618882E1
1.446933137E1,1.062130351E1,-5.774213896E-1,1.626835377E1,1.943720242E1
1.447926337E1,1.076114552E1,-1.812141593E0,1.805728952E1,2.109862116E1
1.448919538E1,9.516341136E0,-2.233703330E0,1.804323047E1,2.052092457E1
1.449912737E1,7.141399773E0,-1.865359149E0,1.631175765E1,1.790398261E1
1.450905937E1,4.326173305E0,-1.374981532E0,1.316895174E1,1.392938045E1
1.451899137E1,1.914286603E0,-1.333545092E0,9.215127668E0,9.505862068E0
1.452892338E1,1.287834629E-1,-1.348171171E0,5.337247816E0,5.506393096E0
1.453885537E1,-1.208334716E0,-1.168048643E0,2.084353455E0,2.677487581E0
1.454878737E1,-2.219101371E0,-8.714199042E-1,-6.997760582E-1,2.484646871E0
1.455871837E1,-2.794272094E0,-6.371384914E-1,-2.963681719E0,4.122779563E0
1.456865038E1,-2.949983447E0,-3.959314902E-1,-4.486856253E0,5.384333117E0
1.457858237E1,-3.043226071E0,-2.402505612E-1,-5.463037212E0,6.258092427E0
1.458851437E1,-3.003012138E0,-2.159059164E-1,-6.119870734E0,6.820374994E0
1.459844637E1,-2.796695180E0,-2.217879960E-1,-6.578977734E0,7.152177422E0
1.460837838E1,-2.719863351E0,-2.231764905E-1,-6.866002348E0,7.388467543E0
1.461831037E1,-2.811653527E0,-2.381929077E-1,-7.185781894E0,7.719947723E0
1.462824237E1,-2.754066931E0,-2.345617868E-1,-7.435880172E0,7.932982908E0
1.463817437E1,-2.594088573E0,-2.857325982E-1,-7.542094844E0,7.980860435E0
1.464810638E1,-2.306460527E0,-3.000972337E-1,-7.688828967E0,8.032926577E0
1.465803837E1,-2.071315334E0,-2.565028788E-1,-7.805850463E0,8.080064504E0
1.466796937E1,-1.942374873E0,-2.959172054E-1,-8.000124788E0,8.237862815E0
1.467790137E1,-1.819739757E0,-4.023631351E-1,-8.298327523E0,8.505033131E0
1.468783338E1,-1.775233091E0,-4.612070283E-1,-8.738408269E0,8.928826548E0
1.469776537E1,-1.849482497E0,-4.892445736E-1,-9.171898618E0,9.369293998E0
1.470769737E1,-1.925039341E0,-4.460288259E-1,-9.206138159E0,9.415821684E0
1.471762937E1,-1.916588944E0,-3.966065513E-1,-8.932836376E0,9.144734860E0
1.472756138E1,-1.865998542E0,-2.858082466E-1,-8.614439696E0,8.818855265E0
1.473749337E1,-1.731687414E0,-1.371882507E-1,-8.277312046E0,8.457627127E0
1.474742537E1,-1.436464419E0,-1.437230989E-1,-7.567802128E0,7.704266052E0
1.475735737E1,-1.263350583E0,-3.438278286E-1,-6.225915837E0,6.362098732E0
1.476728937E1,-1.462821329E0,-6.076746641E-1,-4.818537807E0,5.072220552E0
1.477721942E1,-1.788668823E0,-1.228587717E-1,-4.136437297E0,4.508275052E0
1.478715142E1,-1.431567522E0,1.236174625E0,-3.054717019E0,3.592883152E0
1.479708342E1,-3.340258487E-1,2.632932796E0,-4.627416301E-1,2.694074645E0
1.480701542E1,1.277615012E0,3.581248848E0,2.995608686E0,4.840590339E0
1.481694742E1,3.650507364E0,3.989613127E0,6.569294745E0,8.508751399E0
1.482687942E1,6.044191391E0,3.330810263E0,1.054524995E1,1.260273157E1
1.483681142E1,7.331386335E0,1.644775862E0,1.406321321E1,1.594454386E1
1.484674342E1,7.231927536E0,-2.127221440E-1,1.638434966E1,1.791069347E1
1.485667542E1,6.582501851E0,-1.798713609E0,1.709848648E1,1.840985989E1
1.486660742E1,6.089427205E0,-2.892268505E0,1.636503280E1,1.769917058E1
1.487653942E1,6.023975812E0,-3.418861145E0,1.468837997E1,1.623962445E1
1.488647042E1,6.176666493E0,-3.153815922E0,1.299961638E1,1.473389934E1
1.489640242E1,5.969783818E0,-2.164180228E0,1.225368006E1,1.380125610E1
1.490633442E1,5.597284606E0,-1.277460061E0,1.196010656E1,1.326671203E1
1.491626642E1,5.441493146E0,-4.976945311E-1,1.123814032E1,1.249613322E1
1.492619842E1,4.571793200E0,-1.700426591E-1,9.160189569E0,1.023910545E1
1.493613042E1,2.998437569E0,-3.412769808E-1,6.076393762E0,6.784516120E0
1.494606242E1,1.174608853E0,-7.584245814E-1,3.059115295E0,3.363495234E0
1.495599442E1,-4.106534636E-1,-1.102073485E0,4.755125338E-1,1.268587562E0
1.496592642E1,-1.678953130E0,-1.382360425E0,-1.499359410E0,2.641568208E0
1.497585842E1,-2.601305206E0,-1.555053262E0,-2.984524119E0,4.253511918E0
1.498579042E1,-3.309372324E0,-1.678408462E0,-4.170352902E0,5.582189845E0
1.499572242E1,-3.726177936E0,-1.649715005E0,-5.011828630E0,6.459441758E0
1.500565342E1,-3.797227453E0,-1.511473525E0,-5.478871472E0,6.835314269E0
1.501558542E1,-3.558046804E0,-1.344293882E0,-5.731090534E0,6.878388025E0
1.502551742E1,-3.242351246E0,-1.200659003E0,-5.914267429E0,6.850765129E0
1.503544942E1,-3.006915154E0,-1.147102527E0,-6.185474739E0,6.972623660E0
1.504538142E1,-2.742577737E0,-1.103254257E0,-6.644552504E0,7.272481047E0
1.505531342E1,-2.430732863E0,-9.400549601E-1,-7.202051772E0,7.659093635E0
1.506524542E1,-2.164110354E0,-7.462875889E-1,-7.660441319E0,7.995166039E0
1.507517742E1,-1.953122933E0,-5.689530864E-1,-7.941963118E0,8.198364165E0
1.508510942E1,-1.820144677E0,-5.252970435E-1,-8.098221771E0,8.316853941E0
1.509504142E1,-1.787525692E0,-5.580950993E-1,-8.410988166E0,8.616927537E0
1.510497342E1,-1.752665470E0,-6.847167005E-1,-8.706225779E0,8.907246518E0
1.511490542E1,-1.726601506E0,-7.367336771E-1,-8.784459770E0,8.982798157E0
1.512483642E1,-1.709123594E0,-7.255524851E-1,-8.576560264E0,8.775244488E0
1.513476842E1,-1.606821293E0,-7.400152807E-1,-8.215918620E0,8.404214184E0
1.514470042E1,-1.540729045E0,-7.334814557E-1,-7.965978802E0,8.146696221E0
1.515463242E1,-1.530746094E0,-6.021035832E-1,-7.835415739E0,8.006213346E0
1.516456442E1,-1.661333715E0,-5.315124875E-1,-7.439310148E0,7.641064764E0
1.517449642E1,-2.086525404E0,-5.476832548E-1,-6.916766120E0,7.245357049E0
1.518442842E1,-2.633788244E0,-4.061970082E-1,-6.424611241E0,6.955391155E0
1.519436042E1,-2.693877740E0,-6.010499150E-3,-5.565799688E0,6.183456927E0
1.520429242E1,-2.201891845E0,5.595222585E-1,-3.400232500E0,4.089373291E0
1.521422442E1,-1.559368507E0,1.269519834E0,5.099912256E-1,2.074464220E0
1.522415642E1,-7.136085239E-1,1.933121070E0,4.938161899E0,5.350853870E0
1.523408742E1,7.915063003E-1,2.517930051E0,7.907925307E0,8.336770155E0
1.524401942E1,2.432404874E0,2.883164974E0,8.256940931E0,9.077791983E0
1.525395142E1,3.998033118E0,3.010238419E0,6.097432628E0,7.888250047E0
1.526388342E1,5.279076206E0,2.868113364E0,4.956411059E0,7.788499884E0
1.527381542E1,6.559151580E0,2.425721214E0,6.173482684E0,9.328369703E0
1.528374742E1,8.187113482E0,1.701822175E0,8.222268696E0,1.172734959E1
1.529367942E1,9.387935110E0,9.319335430E-1,1.084221833E1,1.437203967E1
1.530361142E1,9.501350044E0,-8.086377650E-2,1.304622102E1,1.613958099E1
1.531354342E1,7.946111133E0,-1.246199238E0,1.353270820E1,1.574255017E1
1.532347542E1,5.154328784E0,-2.204481285E0,1.211856260E1,1.335239314E1
1.533340742E1,2.230631495E0,-2.504008123E0,9.524807904E0,1.009790766E1
1.534333842E1,-1.148893091E-1,-2.439743276E0,6.429027643E0,6.877350016E0
1.535327042E1,-1.624443924E0,-2.343557017E0,3.208692918E0,4.292643451E0
1.536320242E1,-2.493617036E0,-2.062077318E0,6.303737015E-1,3.296613382E0
1.537313442E1,-2.887171194E0,-1.612130711E0,-1.369934800E0,3.579307795E0
1.538306642E1,-3.142355672E0,-1.214984827E0,-3.188756252E0,4.638831074E0
1.539299842E1,-3.132284720E0,-8.769554633E-1,-4.744234314E0,5.752218501E0
1.540293042E1,-2.858161696E0,-6.121045512E-1,-6.006922992E0,6.680335628E0
1.541286242E1,-2.491457074E0,-3.129025994E-1,-6.844640715E0,7.290704555E0
1.542279442E1,-2.071420291E0,-2.456683674E-2,-7.178137829E0,7.471080795E0
1.543272642E1,-1.540226331E0,2.742875872E-1,-7.214129196E0,7.381814877E0
1.544265842E1,-9.224789608E-1,6.625776802E-1,-7.268052219E0,7.356259897E0
1.545259042E1,-4.354263622E-1,1.039070687E0,-7.300969704E0,7.387382664E0
1.546252142E1,-2.266135204E-1,1.471278888E0,-7.299538305E0,7.449783535E0
1.547245342E1,-2.560460651E-1,1.821786283E0,-7.674563515E0,7.891982640E0
1.548238542E1,-3.885275996E-1,1.983883088E0,-8.342802615E0,8.584235626E0
1.549231742E1,-4.575121728E-1,1.961662206E0,-8.837309829E0,9.063966075E0
1.550224942E1,-4.443726021E-1,2.024658061E0,-8.682173842E0,8.926188991E0
1.551218142E1,-3.622478735E-1,1.957207505E0,-7.978145104E0,8.222693235E0
1.552211342E1,-3.133657354E-1,1.671522635E0,-7.081139538E0,7.282494295E0
1.553204542E1,-1.664790004E-1,1.294330447E0,-6.056277586E0,6.195280846E0
1.554197742E1,-1.403284979E-1,7.247721742E-1,-4.823075246E0,4.879246010E0
1.555190942E1,-3.835080573E-1,-7.853018928E-2,-3.799000914E0,3.819116830E0
1.556184142E1,-9.497073975E-1,-5.387747294E-1,-3.177652389E0,3.360014443E0
1.557177242E1,-1.159779145E0,-6.960474350E-1,-2.521990650E0,2.861818746E0
1.558170442E1,-1.526323114E0,-8.618391683E-1,-1.714517650E0,2.451937963E0
1.559163642E1,-1.931926484E0,-9.704279564E-1,-9.737993878E-1,2.371150692E0
1.560156842E1,-2.146396653E0,-2.851009528E-1,7.135550219E-1,2.279794270E0
1.561150042E1,-1.261050435E0,1.082200553E0,3.488966337E0,3.864491213E0
1.562143242E1,8.160439946E-1,2.074063671E0,7.047444958E0,7.391491619E0
1.563136442E1,3.372700301E0,1.875920244E0,1.084326148E1,1.150958312E1
1.564129642E1,5.447732125E0,2.908135363E-1,1.455418988E1,1.554306279E1
1.565122842E1,5.910511762E0,-1.533810912E0,1.737644674E1,1.841813309E1
1.566116042E1,5.258574114E0,-2.669316803E0,1.931713996E1,2.019727086E1
1.567109242E1,4.762441666E0,-3.512542310E0,2.000177173E1,2.085880333E1
1.568102442E1,4.865636544E0,-3.848603429E0,1.975471517E1,2.070591555E1
1.569095542E1,5.252539787E0,-3.532751457E0,1.897687411E1,2.000478088E1
1.570088742E1,5.280219337E0,-2.869009158E0,1.749891083E1,1.850199476E1
1.571081942E1,4.169670239E0,-2.161341697E0,1.518213874E1,1.589197547E1
1.572075142E1,2.436740000E0,-1.842083138E0,1.230993495E1,1.268327523E1
1.573068342E1,8.766734813E-1,-1.818421210E0,9.173158109E0,9.392658930E0
1.574061542E1,-5.507894419E-1,-1.628116122E0,5.682137645E0,5.936397841E0
1.575054742E1,-1.598149580E0,-1.203621933E0,2.151405816E0,2.937913345E0
1.576047942E1,-2.076336630E0,-7.594846085E-1,-1.008890868E0,2.430195765E0
1.577041142E1,-2.106020021E0,-3.526663336E-1,-3.473915019E0,4.077717429E0
1.578034417E1,-1.773906358E0,8.345237542E-2,-5.368597662E0,5.654692646E0
1.579027617E1,-1.528618585E0,3.795752566E-1,-6.965195684E0,7.141057559E0
1.580020717E1,-1.599930350E0,4.254926371E-1,-8.349701160E0,8.512245918E0
1.581013917E1,-1.818191999E0,2.605312449E-1,-9.457421667E0,9.634133239E0
1.582007117E1,-1.854334078E0,2.949547537E-2,-1.024663966E1,1.041311909E1
1.583000317E1,-1.911436670E0,-3.570011669E-1,-1.078723930E1,1.096109355E1
1.583993517E1,-1.882874776E0,-6.452296492E-1,-1.117770467E1,1.135352899E1
1.584986717E1,-1.796285260E0,-8.183686282E-1,-1.142278604E1,1.159208389E1
1.585979917E1,-1.803907252E0,-1.014356553E0,-1.165401535E1,1.183634548E1
1.586973117E1,-1.754952754E0,-1.130756782E0,-1.197063623E1,1.215132099E1
1.587966317E1,-1.657785040E0,-1.107957319E0,-1.218145876E1,1.234357153E1
1.588959517E1,-1.618384308E0,-1.058514945E0,-1.217033385E1,1.232301293E1
1.589952717E1,-1.694257632E0,-1.027007954E0,-1.206417648E1,1.222577639E1
1.590945917E1,-1.584955630E0,-1.025418242E0,-1.208642280E1,1.223295479E1
1.591939117E1,-1.351266833E0,-9.783233786E-1,-1.207264442E1,1.218736156E1
1.592932217E1,-1.246311066E0,-7.033932189E-1,-1.181956172E1,1.190588479E1
1.593925417E1,-1.189577579E0,-2.638997528E-1,-1.121953097E1,1.128550456E1
1.594918617E1,-1.056199666E0,1.126082372E-1,-1.009652994E1,1.015224877E1
1.595911817E1,-8.559902716E-1,2.676284491E-1,-8.095205777E0,8.144734551E0
1.596905017E1,-3.815806688E-1,2.217917602E-1,-5.283870338E0,5.302271319E0
1.597898217E1,3.793103412E-1,4.680454932E-2,-1.575509453E0,1.621202343E0
1.598891417E1,7.302542312E-1,-2.539836790E-2,3.852559655E0,3.921241157E0
1.599884617E1,4.784161149E-1,7.305055884E-1,1.070474328E1,1.074030023E1
1.600877817E1,3.971599902E-1,1.842215870E0,1.630681558E1,1.641535043E1
1.601871017E1,1.171866655E0,2.450893331E0,1.855867890E1,1.875645788E1
1.602864217E1,2.559582399E0,2.942286464E0,1.830225745E1,1.871312746E1
1.603857317E1,3.924482161E0,3.754346605E0,1.739067419E1,1.821900731E1
1.604850517E1,4.397157626E0,4.197079063E0,1.697121599E1,1.802699753E1
1.605843717E1,4.327270535E0,3.940812265E0,1.593865384E1,1.697928025E1
1.606836917E1,4.299845340E0,3.349585673E0,1.451826224E1,1.550768625E1
1.607830117E1,4.283964887E0,2.625298671E0,1.306406439E1,1.399693990E1
1.608823317E1,4.744106845E0,1.889797441E0,1.197826685E1,1.302139627E1
1.609816517E1,5.289664344E0,9.534075156E-1,1.221827634E1,1.334825125E1
1.610809717E1,5.331785932E0,-1.414382994E-1,1.260736410E1,1.368917732E1
1.611802917E1,4.467182127E0,-1.132440853E0,1.128542325E1,1.219011552E1
1.612796117E1,2.837297661E0,-1.740279605E0,8.298195961E0,8.940854955E0
1.613789317E1,9.965949042E-1,-2.245828847E0,4.718196663E0,5.319617313E0
1.614782517E1,-6.533807409E-1,-2.921580597E0,9.680457276E-1,3.146371260E0
1.615775617E1,-1.757133035E0,-3.462269120E0,-2.673600765E0,4.714123992E0
1.616768817E1,-2.385582271E0,-3.635365414E0,-5.831242813E0,7.273945093E0
1.617762017E1,-2.626214053E0,-3.356100640E0,-8.562917540E0,9.564725221E0
1.618755217E1,-2.640907521E0,-2.842775917E0,-1.086658953E1,1.153856730E1
1.619748417E1,-2.503963976E0,-2.190459516E0,-1.244608737E1,1.288305241E1
1.620741617E1,-2.137865273E0,-1.498310419E0,-1.318950354E1,1.344538603E1
1.621734817E1,-1.643761224E0,-9.257710893E-1,-1.347461377E1,1.360603614E1
1.622728017E1,-1.183081176E0,-5.514971012E-1,-1.348793139E1,1.355094548E1
1.623721217E1,-8.015333980E-1,-3.296471612E-1,-1.351285339E1,1.354061778E1
1.624714417E1,-5.059279954E-1,-2.776309155E-1,-1.354195498E1,1.355424608E1
1.625707617E1,-3.667458442E-1,-3.190493752E-1,-1.356655773E1,1.357526367E1
1.626700717E1,-3.313793989E-1,-4.606202602E-1,-1.337373176E1,1.338576425E1
1.627693917E1,-4.350579876E-1,-7.535314120E-1,-1.294345855E1,1.297267144E1
1.628687117E1,-6.274154489E-1,-1.068069222E0,-1.248375162E1,1.254505786E1
1.629680317E1,-8.521911894E-1,-1.278588281E0,-1.212233522E1,1.221933014E1
1.630673517E1,-1.204201758E0,-1.406114300E0,-1.188710408E1,1.203039911E1
1.631666717E1,-1.554512248E0,-1.529704559E0,-1.171938956E1,1.192059546E1
1.632659917E1,-1.923869020E0,-1.615075223E0,-1.154353338E1,1.181367440E1
1.633653117E1,-1.932540295E0,-1.451395138E0,-1.104608736E1,1.130740048E1
1.634646317E1,-1.485341149E0,-1.278553490E0,-9.862409763E0,1.005525055E1
