Time (s),Linear Acceleration x (m/s^2),Linear Acceleration y (m/s^2),Linear Acceleration z (m/s^2),Absolute acceleration (m/s^2)
0.000274416641332209,-0.330028545856476,0.297603396177292,-2.9244088947773,2.9579814073704
0.0102064165985212,0.0762576323747635,0.376189097464085,-3.48730221927166,3.50836289914303
0.0201384166721255,0.612345273792744,0.460752407312393,-3.46496760964394,3.54869836011207
0.0300704166293144,0.748137794137001,0.477811951339245,-2.93511105358601,3.06641342886793
0.0400014165788889,0.414032861888409,0.400337221026421,-2.01412196338177,2.09484614820265
0.0499334166524932,0.0322617200016975,0.595591831505299,-0.903846808075905,1.08291712554669
0.0598654166096821,0.0261502102017403,0.995289074778557,0.24122161924839,1.0244374287676
0.0697974166832864,0.25650331735611,1.27963303238153,1.08216174244881,1.69538452458328
0.0797294166404754,0.379105103909969,1.39245213478804,1.58815873503685,2.14590116155432
0.0896614165976644,0.448368004560471,1.37653367489576,2.01003066658974,2.47711568285915
0.0995934166712686,0.584370732307434,1.2084610158205,2.22762368738651,2.60080265920753
0.109525416628458,0.697298300564289,0.994685934484005,2.07130188524723,2.40123229364818
0.119457416585647,0.805845134854317,0.772445692867041,1.75947513699532,2.08370139115515
0.129389416659251,0.839263141751289,0.565514631271362,1.50715082466602,1.81539886184158
0.13932141661644,0.892008827626705,0.28828834310174,1.21039352059364,1.5309612640519
0.14925241668243,1.07999125599861,-0.0165724709630013,0.999961000084877,1.47192994450077
0.159184416639619,1.30297248601913,-0.21927862688899,0.992372483611107,1.65245985178511
0.169116416596808,1.3809293192625,-0.218015482127666,1.15794282674789,1.81530386582056
0.179048416670412,1.18533235430717,-0.0366088324785233,1.81958860695362,2.17192442210549
0.188980416627601,0.679768932759762,0.13841075733304,2.73619871735573,2.82276934242775
0.19891241658479,-0.128082381784916,0.379365012645721,3.74392365038395,3.76527385581018
0.208844416658394,-0.444045450389385,0.473348186910152,4.77154081106186,4.81547885258481
0.218776416615583,-0.061904179751873,0.124161385148764,4.49388636052609,4.49602744635252
0.228708416572772,0.497974905073643,0.141163041740656,4.48923022270203,4.51897045828559
0.238640416646376,0.37489803224802,-0.0135038521885872,5.33516854584217,5.34834126633212
0.248572416603565,-0.665730645060539,-0.314409317225218,5.7469750803709,5.79394279268746
0.258504416677169,-1.68635307401419,-0.754888404607773,3.57374862492084,4.02309861024708
0.268435416626744,-1.80740388661623,-1.52944011837244,-0.147952097654343,2.37229545129667
0.278367416583933,-1.29893147528172,-2.36430425360799,-1.89603744328022,3.29728912402703
0.288299416657537,-1.01121221244335,-2.51053361535072,-3.0735596716404,4.09537522426636
0.298231416614726,-1.61771728724241,-2.409041300565,-3.91065408110619,4.86967191413789
0.308163416571915,-1.2433843883872,-2.38036465466022,-4.04857703447342,4.85830388412523
0.318095416645519,-1.25886021405458,-2.01505605608225,-4.88837051868439,5.4351951460482
0.328027416602708,-1.20818093419075,-1.40163138628006,-4.77462814092636,5.12067823602238
0.337959416676313,-0.327895481586456,-0.545111210793257,-3.53607267558575,3.5928361562979
0.347891416633502,1.94473890244961,0.819040619507432,-1.41679146230221,2.54167955941666
0.357823416590691,2.93566244602203,1.47831147998571,0.930694298744202,3.4160958280699
0.367755791638046,6.03680343389511,1.69646203279495,8.00800741910935,10.1709961140841
0.377687791595235,5.25241641104221,1.31003694579005,5.38377703428268,7.63473182955303
0.387618791661225,2.32452491462231,0.247753726579249,0.691106976270676,2.43770934288396
0.397550791618414,0.167249663472176,-0.969281975179911,-0.838782500624657,1.29268560783138
0.407482791575603,-1.31872225373983,-1.32528633803129,-1.00485921263695,2.1225348754502
0.417414791649208,-1.39847330510616,-1.25471453815699,0.234175724387169,1.89337646210396
0.427346791606396,-0.375803181231022,-1.40164001092315,1.84406271278858,2.34656984552797
0.437278791680001,-1.06021071016788,-1.83756952598691,3.85729999244213,4.40221214214905
0.44721079163719,-2.37633592307568,-1.62082771360874,5.86288560569286,6.53050400213817
0.457142791594379,-4.03995911568403,-1.92103312075138,3.24359787225723,5.52562802442708
0.467074791667983,-3.4688446059823,-1.75260670512915,0.842825850248337,3.97679124133553
0.477006791625172,-3.04212562501431,-0.941799038350582,1.69721281528473,3.60860708409401
0.486938791582361,-3.45656779199839,-0.712582410648465,3.04443527519703,4.66092488005441
0.496869791648351,-4.40548055291176,-1.14127190329134,3.54404944717884,5.76810601006731
0.50680179160554,-4.89846982955933,-1.44315889656544,2.03177587687969,5.49598284983762
0.516733791679144,-4.13954976975918,-1.2345144546032,0.000892869830131531,4.31971052643045
0.526665791636333,-2.11433329939842,-0.489470860809088,-2.26726605534554,3.13854781551091
0.536597791593522,-0.81455631673336,0.61325320020318,-3.8069420170784,3.94111519776911
0.546529791667126,-1.475284961164,1.64344123542309,-4.77355517685413,5.25967621031908
0.556461791624315,-2.17801357090473,2.58435208171606,-5.52227886199951,6.47442527387582
0.566393791581504,-1.98850107237697,3.30517431557179,-6.63096591353416,7.67124649047414
0.576325791655108,-0.907537278234959,3.64755568921566,-7.82776114940643,8.68344004582702
0.586257791612297,0.240389779731631,3.37183432817459,-7.99256199896336,8.67802404295639
0.596189791569486,-1.009290086478,1.56251197010279,-4.56197777152062,4.92663691814461
0.606121791643091,-2.44380138963461,-0.395148694217205,-2.59369213163853,3.58546323314648
0.616052791592665,-2.24360442012548,-1.47442922115326,-4.24369511246681,5.0216183178107
0.625984791666269,-1.20083478480577,-2.02722411185503,-6.14677962005138,6.58289765054607
0.635916791623458,-0.149492546617985,-2.4353773060441,-7.03561779499054,7.44669916147259
0.645848791580647,0.555036128461361,-2.87777822703123,-7.39688976824284,7.95635914670824
0.655780791654252,1.20830898821354,-3.20715539306402,-7.77052977204323,8.49276099183696
0.665712791611441,2.51044941544533,-3.26273756325245,-8.33158414721489,9.29317529568289
0.675644791568629,3.82864191144705,-3.54394098132849,-8.7490694975853,10.1864730716184
0.685576791642234,4.82478964984417,-4.42786457151175,-8.08745061457157,10.4063171810217
0.695508791599423,5.76000384628773,-5.42930871784687,-6.06963204145432,9.9747416298161
0.705440791673027,6.51667799055576,-6.16337928056717,-2.80526719808578,9.39807747581252
0.715372791630216,6.64919811666012,-6.40380158543587,0.922264367938042,9.27745018335294
0.725304791587405,5.53522810578346,-6.39221415817738,4.20707107722759,9.44450099665956
0.735235791653395,3.49017027854919,-6.49437378644943,5.81737087905407,9.3914846214992
0.745167791610584,1.35807840049267,-6.5694368326664,6.20632357120514,9.13894575488744
0.755099791567773,-0.0745993620157242,-6.13103716135025,6.94234827339649,9.26236369874354
0.765031791641377,-0.483041408658028,-5.64538555562496,6.5586908197403,8.66718710673093
0.774963791598566,-0.035451083779335,-5.34346925318241,5.36008645534515,7.56864897110584
0.78489579167217,-0.173171723484993,-5.18395896434784,4.28246566057205,6.72628657758766
0.794827791629359,-0.92896001458168,-5.12921908557415,3.44058881342411,6.24575908273517
0.804759791586548,-1.75534934163094,-5.16999522864819,2.64235616862774,6.06565314680078
0.814691791660152,-3.22923769533634,-5.15587946534157,2.04096945405006,6.41690154720153
0.824623791617341,-5.12551955223084,-4.65993792951107,2.00481962800026,7.21146822276931
0.83455579157453,-6.63698445260525,-4.0309213668108,1.41664732843637,7.89333765543458
0.844487791648135,-7.34890108466148,-3.52029045581818,0.0373037740588188,8.14863078173397
0.854418791597709,-7.47032962739468,-2.88793981075287,-0.485784045159817,8.02383993054409
0.864350791671313,-7.72974544286728,-1.97465574279428,-0.105877580344677,7.97868660721159
0.874282791628502,-7.56890491247177,-1.15052358716726,0.705648709237576,7.68830060543396
0.884214791585691,-7.26072916567326,-0.913475125730038,1.49895215123892,7.46990511146491
0.894146791659296,-7.47547751605511,-1.03708204865456,2.04048325806856,7.81804804251963
0.904078791616485,-7.66068163990975,-1.33880743950605,2.45073238670826,8.15380511046148
0.914010791573674,-8.28685645580292,-1.20186769545078,2.51652993500233,8.74353468513813
0.923942791647278,-9.10823413431645,-0.933717893958092,2.19544704437256,9.41550560913587
0.933874791604467,-9.77548622488976,-0.474467051625252,1.50428335011005,9.90192498019984
0.943806791678071,-10.6028192925453,0.0448189079761505,-0.844284145832062,10.6364750459815
0.95373879163526,-10.6326740062237,0.365767312645912,-4.1088188508153,11.4048206736643
0.963669791584834,-9.42560579717159,0.389871582090855,-5.21546610116959,10.7793845439638
0.973601791658439,-7.67880917787552,0.0413246119022369,-5.76035994172096,9.59935231002372
0.983533791615628,-5.80487362504006,-0.216221848726273,-4.37858511507511,7.27429153254869
0.993465791572817,-4.71901995062828,-0.65686392724514,-2.70816014885902,5.48039696602461
1.00339779164642,-4.02023441076279,-1.28398189902306,-1.57794949650764,4.50564300050823
1.01332979160361,-3.56699684500694,-2.00982133626938,-0.315447636544704,4.10637985425298
1.02326179167721,-3.30577248573303,-3.0744361692667,0.635956330597401,4.55902730204062
1.0331937916344,-2.25497930109501,-3.41107206881046,1.04868409395218,4.2213839716252
1.04312579159159,-0.931990626454353,-3.18126304507256,0.660990892052651,3.38022928942988
1.0530577916652,0.323969660997391,-2.92709452092648,0.0363261196017265,2.94519239823986
1.06298979162239,1.67623826801777,-2.11578340888023,-1.43784143865109,3.05838227943504
1.07292079157196,2.19929100394249,-2.02681042134762,-2.00587300390005,3.6011620224423
1.08285279164556,1.81964474022388,-2.91182744085789,-1.16313720077276,3.62529090884841
1.09278479160275,2.69912444651127,-2.61886848807335,0.182678126692772,3.76525115145727
1.10271679167636,3.75097188413143,-1.74206739127636,0.851031540334225,4.22242152726804
1.11264879163355,3.62225127875805,-1.39986026465893,0.778440696895123,3.96059124445049
1.12258079159074,3.12160448849201,-1.07925275266171,0.793579138219357,3.39690578840779
1.13251279166434,2.26405008673668,-0.837283274531364,0.852707059979439,2.56009285128511
1.14244479162153,1.80172302424908,-0.34914572507143,0.926329644620419,2.05577119445416
1.15237679157872,1.29301175415516,0.183506969511509,1.14182234555483,1.73473700400119
1.16230879165232,0.756618595719338,0.441291411817074,1.41850148051977,1.66714014400967
1.17224079160951,0.78628970682621,0.777542564570904,1.15684647381306,1.60034924524432
1.18217279168312,1.25775362849236,1.46282395988703,0.537583943903446,2.00269683785341
1.19210379163269,1.43386123895645,1.76183682739735,-0.190751377344131,2.27956424496305
1.20203579158988,1.55054125785828,1.45517200112343,-0.797816907763481,2.27117052717042
1.21196779166348,1.59202023625374,1.17793708831072,-0.699467909932137,2.10031416071124
1.22189979162067,1.05839514970779,0.734050097465515,0.229651733636856,1.30834619167731
1.23183179157786,0.0240607076883316,0.245314962565899,2.08576818913221,2.10028266843038
1.24176379165147,-0.408033910989761,0.909842835366726,4.97672428607941,5.07563693315808
1.25169579160865,-0.323281443715096,1.89612047374249,4.19141837328673,4.6116994397642
1.26162779168226,-1.34839599609375,1.69676141023636,0.919396016299725,2.35424299517631
1.27155979163945,-3.35886111080647,1.92298989146948,1.1962865281105,4.05104178474137
1.28149179159664,-4.63560240268707,2.57045558899641,1.28665407657623,5.45449633637894
1.29142379167024,-4.74838759124279,3.0511926099658,-0.324019069969654,5.65349002099433
1.30135479161982,-4.09346377015114,3.80362956941128,-2.0698453438282,5.95888439946666
1.311286791577,-3.42508375167847,4.68069028258324,-3.25659506320953,6.65172696622476
1.32121879165061,-3.53028860986233,5.22276693463326,-4.53792174160481,7.76742981013358
1.3311507916078,-4.21362697541714,5.2124290573597,-5.31753275871277,8.55571292213303
1.3410827916814,-4.30293208479881,5.27135495781899,-5.69085291981697,8.87063777711069
1.35101479163859,-3.35490780830383,5.40129763126373,-6.10828564524651,8.81706164363377
1.36094629159197,-1.90553507566452,5.20188535809517,-6.07677266120911,8.22300682107045
1.37087829166558,-0.695390646457672,4.59137172460556,-5.43828243970871,7.15116622368215
1.38081029162277,0.557976400852203,3.50150101304054,-4.49720524013043,5.72684048844461
1.39074229157995,2.43249199748039,2.38221997618675,-3.00291302740574,4.53976607138655
1.40067429165356,3.86348927021027,1.38359740376472,-2.37938875436783,4.74366756435845
1.41060629161075,4.741193177104,0.732188636362553,-1.3611736240983,4.98676313622142
1.42053729167674,3.97501029074192,0.07808722615242,-2.07814517408609,4.48614442377524
1.43046929163393,3.12407318294048,-0.554622730314732,-3.67163247674704,4.85266160675286
1.44040129159112,2.91220926403999,-0.678859983086586,-4.39869135081768,5.31886259212954
1.45033329166472,2.63254863381386,-0.681549117565155,-4.9997576379776,5.69143197688986
1.46026529162191,2.09990003228188,-0.64570013076067,-4.53510046005249,5.03921075042611
1.4701972915791,1.58194431424141,-0.422064597308636,-3.17873617082834,3.57561882495806
1.4801292916527,1.16377367019653,0.215077840983868,-2.82962114363909,3.06714581486671
1.49006129160989,0.210602089762688,0.972333783209324,-1.22748259305954,1.58003156375015
1.4999932916835,-2.01614276111126,0.628186550438404,2.52392812460661,3.29084535545402
1.50992529164068,-2.74203540802002,-0.351243413686752,3.76126181423664,4.66789251694258
1.51985729159787,-2.498590092659,0.264995228648186,2.41196227714419,3.48292074970227
1.52978829166386,-1.90498075962067,1.45877154707909,1.77781068965793,2.98623123172912
1.53972029162105,-1.21341886997223,2.02618272274733,0.172701314985752,2.3680429734619
1.54965229157824,-0.645579970479012,2.08780799031258,-1.02683655738831,2.41456186880473
1.55958429165185,-0.652827009558678,1.79294021397829,-1.73170670986176,2.57674714403452
1.56951629160903,-1.06828337609768,1.3444210588932,-2.28910306692123,2.86158875560944
1.57944829168264,-1.31372902393341,0.889156555831432,-2.53494807958603,2.99039213069121
1.58938029163983,-1.28816792070866,0.444864791482687,-2.95642561644316,3.2554160563905
1.59931229159702,-1.04507519245148,0.16376296877861,-3.96453734278679,4.1032373572792
1.60924429167062,-1.14327859461308,-0.032447661459446,-3.84844496905804,4.01480603211447
1.61917629162781,-0.987049763202667,0.0441684052348137,-3.51648625731468,3.65265570249133
1.629108291585,-0.742049673199654,0.440124307572842,-3.56884807348251,3.67165135806929
1.6390402916586,-0.722334031462669,1.39493033096194,-3.16910902261734,3.53706786455693
1.64897129160818,-0.402640439271927,2.27200522363186,-2.5185980951786,3.41576688674518
1.65890329168178,-0.490669101476669,2.14858789667487,-1.90645674303174,2.91406304494821
1.66883529163897,-1.75883545160294,1.47746860384941,-0.960955101549626,2.48994986462986
1.67876729159616,-2.87128343224525,0.12148292183876,1.31892442122102,3.16205443936024
1.68869929166976,-3.33085119366646,-0.173820472061634,1.72552971124649,3.7552943979469
1.69863129162695,-3.57151557326317,0.756444202512503,-0.646350121870637,3.70751935957431
1.70856329158414,-3.57944556713104,-0.58716979444027,-0.80289989233017,3.71508373696487
1.71849529165775,-1.76622750163078,-3.43290527969599,1.59977247476578,4.17895563722561
1.72842729161493,0.361247414946556,-3.49166950464249,2.20687718153,4.14639150573287
1.73835929157212,1.19354886174202,-1.91610026344657,2.19117506861687,3.14598907917269
1.74829129164573,0.840056024193764,-1.14557596564293,1.29633107230067,1.92315175320492
1.7582222915953,2.14733849287033,-0.623124469667673,1.1258239980787,2.50336301448894
1.76815429166891,1.81376887321472,-1.0040860645473,2.8354154419899,3.51248161264019
1.7780862916261,0.551529260873795,-1.77508574098349,2.3747893345356,3.01574838089435
1.78801829158328,-0.732160862088203,-2.84687569230795,1.72527769625187,3.40842248916002
1.79795029165689,-2.22387737631798,-3.67927946537733,1.02262948572636,4.41910613521821
1.80788229161408,-2.66348917543888,-3.67602461278439,-0.430106565356255,4.55985999774546
1.81781429157127,-2.00225737810135,-3.40508305817842,-1.35558339357376,4.17627005570617
1.82774629164487,-0.483205715417862,-3.25957305014133,-1.83073047637939,3.76959922402429
1.83767829160206,1.26178119063377,-2.98187708437443,-1.84062162637711,3.72445575767005
1.84761029167566,3.12195999920368,-1.950937243402,-1.50767999768257,3.97817663505946
1.85754229163285,3.56169985234737,-1.24500742927194,-1.05992236934602,3.9190795815081
1.86747329158243,3.21096222281456,-0.756932883560658,-1.25582989454269,3.52991990144037
1.87740529165603,2.84060660004616,-0.16806037992239,-1.31948268413544,3.13661038403859
1.88733729161322,2.73598003149033,0.384237789809704,-0.802096557989717,2.87690533389102
1.89726929157041,1.87247082531452,0.272570004165173,-0.746756170168519,2.03422864410798
1.90720129164401,0.723462544083595,0.0316138485074043,-0.215126007422805,0.755431457631355
1.9171332916012,0.136249480247498,-0.567956428527832,2.09052109837532,2.17057985071413
1.92706529167481,0.351783111691475,-1.1519228258729,3.15463716387749,3.37674594693698
1.936997291632,1.64071935653687,-0.236271658837795,4.94749990224838,5.21780984575257
1.94692929158919,2.83320811808109,0.832449381351471,4.75899268627167,5.60071884679639
1.95686129166279,3.88302247881889,1.50544986963272,2.44899634838104,4.8313379094588
1.96679329161998,3.93480659008026,1.67363391816616,0.801808655709028,4.3504770443878
1.97672529157717,3.175302978158,0.722088156044483,-0.128797788619995,3.25891840624342
1.98665629164316,3.64716860353947,-0.392394655644894,-0.255634567290544,3.67711319113466
1.99658829160035,5.48617347478867,0.223860358893871,-0.977348940074444,5.5770443611669
2.00652029167395,3.13072146713734,0.589548734128475,-0.839703729450703,3.29455413796169
2.01645229163114,-0.347839749455452,0.67776713848114,-0.637274000644684,0.993216460397141
2.02638429158833,-1.72385156035423,0.0377665811777115,-3.27976523995399,3.70539478949276
2.03631629166193,-1.5072958356142,-1.46876034557819,-8.1310030156374,8.3989527757398
2.04624829161912,-0.896375820636749,-2.26129020094872,-7.4519009578228,7.83886157996997
2.05618029157631,-0.115532795190811,-1.74421156525612,-3.04500391691923,3.51107827671091
2.06611229164992,0.530521384477615,-0.896871079802513,0.382768384516239,1.11010914299421
2.0760442916071,0.913611658215523,0.291293665766716,1.17445550993085,1.51620711202331
2.08597629168071,1.07633323788643,1.38183329880238,0.399549454897642,1.79655121595994
2.09590729163028,0.530657624602318,1.68613935828209,-0.584078371524811,1.86166887339816
2.10583929158747,-0.538083003759384,1.47941806554794,-1.59925923541188,2.24406801003324
2.11577129166108,-1.26450599312782,1.6663026791811,-2.08871884033084,2.95605927194556
2.12570329161827,-1.95294605433941,2.01908186405897,-1.99292756080627,3.44419077978456
2.13563529157545,-2.43256099462509,2.4366055136919,-1.96053267046809,3.96208124271802
2.14556729164906,-2.51151711702347,2.84662893980741,-1.79621889397502,4.19969247268461
2.15549929160625,-2.1663074451685,2.99060405373573,-1.56111083105207,4.00919787239806
2.16543129167985,-1.60886840343475,2.87250842392445,-1.10240597248077,3.47203990663254
2.17536329163704,-0.863909155726433,2.55324255555868,-0.478214385956526,2.73753092691198
2.18529529159423,-0.13944381415844,2.30592024385929,-0.0970111548900604,2.31216866005061
2.19522729166783,0.370248034000397,2.1739105796814,0.219194719344377,2.2160814831861
2.20515829161741,0.768511832356453,2.18761236011982,0.587898942232132,2.39204586931324
2.2150902915746,1.06578252196312,2.32558793842793,0.857280021160841,2.69799567793669
2.2250222916482,1.51576669692993,2.76496175587177,0.974604549407959,3.3003660734352
2.23495429160539,2.01301742434502,3.09760634601116,0.864857062473893,3.79412466375002
2.24488629167899,1.89219406843185,2.98207705914974,0.518799909800291,3.56964078384992
2.25481829163618,0.782610054016113,1.98233708381653,0.718438104763627,2.24906472136701
2.26475029159337,-1.11201821029186,0.0823311352729797,2.06090275838971,2.34322066724292
2.27468229166698,-2.82964131653309,-1.8981038492918,4.22528456926346,5.42795522219771
2.28461429162417,-3.59569497942925,-3.39393914222717,5.41580808162689,7.33340456154231
2.29454629158135,-3.96501038253307,-5.02118183612824,4.85119275212288,8.0291746452116
2.30447829165496,-3.56619285285473,-5.81932326436043,3.12774114131928,7.50766404189611
2.31441029161215,-2.62055716395378,-5.54989584624767,-0.451987431049347,6.15410077847067
2.32434129167814,-1.45570643663406,-5.20752441287041,-5.49652070760727,7.71032629850739
2.33427329163533,0.296776599884033,-4.88496568500996,-10.7746198439598,11.8339933613221
2.34420529159252,2.33773319005966,-4.32699630081654,-8.45529485821724,9.78161053173665
2.35413729166612,2.74211025238037,-4.6313485532999,-1.85189973592758,5.69193207007
2.36406954168342,2.38313038766384,-4.91280954122543,2.12586517810822,5.85954868470734
2.37400154164061,1.33213196575642,-4.58114962220192,2.7614364695549,5.51244399613989
2.3839335415978,2.82461621940136,-3.92251340389252,3.4914169049263,5.9627644758641
2.3938655416714,3.0646625483036,-3.64326617181301,3.85520259618759,6.12602089380238
2.40379754162859,3.71463787078857,-3.00589393794537,3.91237550139427,6.17580884914547
2.41372954158578,4.46942687273026,-2.54290029287338,3.70908535480499,6.34030225142365
2.42366154165938,4.29067047357559,-2.33890789568424,3.01859467506409,5.74388867141702
2.43359254160896,3.85911730706692,-2.22695535063744,1.60027767419815,4.73423754769162
2.44352454168256,3.51223533153534,-2.21586142838001,-0.148656093282625,4.1554707949807
2.45345654163975,2.98377918362617,-2.00147151231766,-2.13446175456047,4.17908523638145
2.46338854159694,2.52597201883793,-1.87787072896957,-3.55236652672291,4.74618173428434
2.47332054167055,2.68891637742519,-1.17627092421055,-2.41104791879654,3.79829391156894
2.48325254162773,2.84180761814117,0.286370894908905,-1.65379782378674,3.3004433141531
2.49318454158492,2.6102818518877,1.05001199662685,-1.10201420903206,3.02167699403215
2.50311654165853,2.18684462070465,1.27820484995842,-0.745842177271843,2.64052600573441
2.51304854161572,1.7495436412096,1.30875947535038,-0.799035467505455,2.32641612682427
2.52298054157291,1.1484720915556,0.890219871997833,-0.272001947164535,1.4783317032531
2.5329115416389,0.423816130757332,0.401269267201424,0.734295095801353,0.937990631727419
2.54284354159608,0.247516731619835,0.929459366798401,1.75683804273605,2.00290767519766
2.55277554166969,-0.139808680415154,1.30040965139866,2.04206522226334,2.42500352588354
2.56270754162688,-0.787073818445206,1.25953001260757,1.57356525421143,2.16379496662753
2.57263954158407,-1.24365891516209,1.1646794039011,1.4711325609684,2.2510878754671
2.58257154165767,-1.70875229537487,0.815598875284195,1.97151213347912,2.73347691132907
2.59250354161486,-2.2005224275589,0.52179441511631,2.42589926183224,3.31655779301288
2.60243554157205,-2.4894003161788,0.433542973995209,3.06052330434322,3.96886335629229
2.61236754164565,-2.57131746858358,0.750287815332413,3.38201374590397,4.31423484613005
2.62229954160284,-2.60487785518169,1.72944032907486,2.80577298223972,4.20103731477274
2.63223154167645,-2.89654281914234,3.35618074715138,1.4067067694664,4.65110024036649
2.64216354163364,-2.72580704569817,4.26092510282993,0.833471401557326,5.1264199359317
2.65209454158321,-2.18660020709038,4.35641890525818,0.181665827482939,4.87776676529471
2.66202654165681,-1.52461236476898,4.15255573153496,-0.881233870983124,4.51051384009385
2.671958541614,-1.33957371711731,3.78782863855362,-1.93297371983528,4.45853013225349
2.68189054157119,-1.58131456911564,3.12044440090656,-2.43108515739441,4.2600356886005
2.6918225416448,-1.41348252296448,4.94263443410397,-3.21191064119339,6.06167781714993
2.70175454160199,-0.721584126055241,7.0876258546114,-3.45672362029552,7.91858965302786
2.71168654167559,-0.0635522174835205,5.24824442267418,-2.781802906394,5.94024711729233
2.72161854163278,0.640819752216339,3.55688817858696,-2.87644184589386,4.61909311040723
2.73155054158997,0.893868534564972,2.81705927789211,-3.22085571169853,4.37135396048232
2.74148254166357,-0.182453593611717,2.33008854031563,-3.88351422965527,4.53258035686815
2.75141454162076,-0.556114647388458,1.24382848441601,-2.34611678168178,2.71304934584196
2.76134554157034,-0.48088407844305,1.45618123054504,-1.45960711419582,2.11711270387355
2.77127754164394,-1.43676087319851,0.727585415840149,-1.03396424017847,1.91382977144396
2.78120954160113,-2.66244310855865,-0.923979941010475,-0.124930586367846,2.82098385126739
2.79114154167473,-3.61438589662313,-3.52460979402065,0.347580644711852,5.06038258577282
2.80107354163192,-3.98741194278002,-5.40226651489735,0.691994510516524,6.75002177048273
2.81100554158911,-3.54023823201656,-5.81510040521622,1.15645412564278,6.90550980065149
2.82093754166272,-2.05781674414873,-4.02268380939961,1.84433694720268,4.88038661969741
2.8308695416199,-0.769609354734421,-3.72391857147217,1.930771073699,4.26470925443726
2.84080154157709,0.749128020107746,-2.43945720076561,1.11921211279929,2.78653547946449
2.8507335416507,1.36592010140419,-1.10141545414925,-0.00435149788856506,1.75467166774662
2.86066454160027,1.35032820850611,-0.719091750383377,-1.19789685130119,1.94304814209892
2.87059654167388,0.842529104053974,-0.886177107095718,-2.25097980558872,2.56165478577555
2.88052854163107,-0.245554990768433,-1.07242905199528,-2.98226066172123,3.17872301081814
2.89046054158825,-1.7396574613452,-1.12808518946171,-3.70165939092636,4.24278994577038
2.90039254166186,-3.62265327483416,-0.849832568764687,-4.06055680990219,5.50762687108004
2.91032454161905,-5.34047138571739,-1.33316049098969,-4.48450742661953,7.09991256113819
2.92025654157624,-6.63370825767517,-1.5990772408247,-4.39658226013184,8.11745457887984
2.93018854164984,-7.34841225743294,-2.06075584709644,-4.09449288010597,8.66087462741329
2.94012054160703,-7.49784837841988,-2.78353894472122,-3.25179449915886,8.63365431479122
2.95005254168063,-7.76528481960297,-2.81742063581944,-2.69608330965042,8.68944029159951
2.95998454163782,-5.96428918898106,-2.30393862247467,-2.19048743605614,6.75863254759767
2.96991654159501,-3.60430646628141,-3.07755975186825,-1.90304299235344,5.10724698442741
2.979847541661,-3.48962531805038,-4.878813829422,-5.1350715637207,7.89615534339786
2.98977954161819,-4.3589203441143,-4.63051123201847,-6.51932502508164,9.10732779792396
2.99971154157538,-2.79604789316654,-5.66869489610195,-5.78717995047569,8.56991466848773
3.00964354164898,1.21510082155466,-5.28258979797363,-2.95302750706673,6.17273006356917
3.01957554160617,4.51544796824455,-3.72097976088524,-0.249114775657654,5.85636567388789
3.02950754167978,7.16590545415878,-2.26126915097237,1.49338823318481,7.66118447539914
3.03943954163697,8.07771324634552,-2.02181982278824,1.78023947685957,8.51507247655442
3.04937154159416,8.0247035586834,-2.41588765919209,2.15110293030739,8.65214564159432
3.05930354166776,7.39765399932861,-2.52020023226738,1.51206657886505,7.9600904042243
3.06923554162495,5.39151640892029,-2.0724532020092,-0.167350235581398,5.77853939707294
3.07916754158214,3.20602307975292,-1.81268713831902,0.331268155574799,3.69785846676607
3.08909854164813,2.12968034014106,0.312575776576996,2.29305022984743,3.14504710996344
3.09903054160532,1.5193222425878,1.5329083943367,2.7332379797101,3.48263378436202
3.10896254167892,1.61545675367117,0.623823650479317,2.60488545656204,3.12798412906581
3.11889454163611,1.71223255813122,-0.790358784198761,1.93377712726593,2.70109261574304
3.1288265415933,1.64804065525532,-1.86818540096283,1.50498677015305,2.91052226792387
3.1387585416669,1.46025001555681,-1.86348190069199,2.06797189593315,3.14346984469545
3.14869054162409,1.18071539282799,-1.24855011105537,2.8754922580719,3.34983909239067
3.15862254158128,0.750310619473457,-0.552259578108788,3.68593301206827,3.80184939690701
3.16855454165488,-0.37909516364336,0.0865604263544083,3.85456057190895,3.8741248112346
3.17848654161207,-2.21079540073872,0.558250050544739,4.27877986818552,4.84842413400997
3.18841754167806,-2.41246177554131,1.90989125132561,4.34809100836515,5.32668300421228
3.19834954163525,-1.57329511284828,2.43762819170952,3.3706277552247,4.44729357895568
3.20828154159244,-0.714552776142955,1.46489124298096,2.76937728077173,3.21340046475856
3.21821354166605,-0.213099143207073,1.21518239021301,2.73318389296532,2.9987286771371
3.22814554162323,0.063802478313446,1.37507801055908,2.78312496185303,3.10494683443235
3.23807754158042,0.304637888967991,1.61199841797352,2.04028299093246,2.61803319803862
3.24800954165403,0.594295869246125,1.81552713096142,0.889962886869907,2.10745350683374
3.25794154161122,0.357737331390381,2.05269955337048,0.0922024047374725,2.08567800441895
3.26787354156841,0.140268929377198,2.03787861585617,-0.213035993278027,2.05377918967557
3.27780554164201,-0.799792243391275,2.14368398308754,-0.307473788559437,2.30859021538817
3.2877375415992,-0.859189429432154,2.4948162996769,-0.0459348490834236,2.63901967691448
3.29766854166519,0.728482086360455,2.81273877024651,0.548382289409638,2.95684099591677
3.30760054162238,2.85953403711319,2.68024437189102,0.858887274563313,4.01227269173833
3.31753254157957,4.94844539701939,2.97723907291889,1.52436999768019,5.97283586200264
3.32746454165317,4.59000815391541,4.39815574586391,2.34227384537458,6.77482070497895
3.33739654161036,2.0005741108954,5.5788576900959,1.88471226364374,6.21917118402896
3.34732854156755,0.367141115963459,4.86460801899433,0.717339924573898,4.93090056124462
3.35726054164115,0.729862467795611,2.86722604930401,-0.347050082981586,2.97894749866487
3.36719216662459,0.757026439011097,1.47876668572426,-1.72450527906418,2.39452675860804
3.37712416658178,0.0824375545978546,0.93770978808403,-3.81424168109894,3.92868110170692
3.38705616665538,-1.02944068796933,0.66740353345871,-7.60905072569847,7.70732304712683
3.39698816661257,-2.25504098922014,-0.10632927775383,-12.154690207243,12.3625648557417
3.40691916667856,-2.67948247969151,-1.41064428448677,-11.1356854104996,11.540062097664
3.41685116663575,-2.09465244859457,-1.65070406198502,-6.8699322617054,7.36942074121689
3.42678316659294,-2.45422960639,-0.869744092226028,-4.47364125341177,5.17621133755867
3.43671516666654,-3.32196254879236,0.282945011258125,-3.09928508162498,4.55203922128952
3.44664716662373,-3.7153222873807,1.33709098935127,-2.67468600869179,4.76921138743123
3.45657916658092,-3.85960087180138,2.29873226165771,-2.52197515457869,5.15180042128071
3.46651116665453,-4.05415060043335,3.09617494761944,-2.32976913616061,5.6080531938514
3.47644316661172,-3.98770108759403,3.61548254191875,-1.43697283476591,5.57120856751685
3.48637516656891,-3.39048577666283,3.67299692451954,-0.343595255613327,5.01042492299435
3.49630716664251,-2.21084144756198,3.42894817650318,0.50585285872221,4.1111303333852
3.5062391665997,-0.514571934342384,2.19681880116463,0.883639415502548,2.42314170807094
3.51617016666569,1.4330410207808,-1.08403519034386,2.4983562040329,3.07742141790396
3.52610216662288,3.95125276118517,-4.83491176486015,7.17482713580132,9.51140970547413
3.53603416658007,6.66386819601059,-8.47677635908127,8.22404800415039,13.5608938625096
3.54596616665367,6.53991599500179,-12.0156516051292,6.36332365036011,15.0876861246766
3.55589816661086,3.37784848183394,-12.5582205927372,6.71768830776215,14.6371479811581
3.56583016656805,-1.41634970515966,-7.22997398078442,8.0120630478859,10.8844717158631
3.57576216664165,-4.45712433099747,0.192901983261108,5.8008215045929,7.31797093498349
3.58569416659884,-5.34453169226646,1.80545120894909,-2.3213972389698,6.10020968644792
3.59562616667245,-2.56760799497366,1.66514200687408,-11.368873540163,11.7735548706042
3.60555816662963,1.96264541566372,1.11163638710976,-11.3004131698608,11.5233263554556
3.61549016658682,6.40437870562077,0.397116574645042,-5.00517215967178,8.13790615126643
3.62542116665281,8.98550400137901,-0.686993460059166,-0.789362418651581,9.04623320509381
3.63535316661,8.69742747366428,-0.701227337121964,1.32263901114464,8.82532369898006
3.64528516668361,7.11244143784046,0.492491093873978,3.44276339292526,7.91719587126159
3.6552171666408,6.10004750311375,1.33646358311176,5.41959006071091,8.26853498966925
3.66514916659798,5.9599055314064,1.28500983953476,7.1308303463459,9.38192227954151
3.67508116667159,4.54546143382788,0.984123816490173,8.21804057478905,9.44277026203004
3.68501316662878,2.8440128955245,0.446704471707344,8.73344573736191,9.19570707897973
3.69494516658597,-0.819436841458082,-0.270843029022217,8.36916887998581,8.41354981118147
3.70487716665957,-2.29523679614067,-0.937061331868172,6.81307510614395,7.25011643299603
3.71480916661676,-1.28966480791569,-1.1828671681881,4.76933407187462,5.08025172048568
3.72474116657395,-0.141434279456735,-0.995768546462059,3.15230997204781,3.30886941619047
3.73467216663994,0.438649055063725,-0.62622685611248,2.30402750015259,2.42757405454174
3.74460416659713,-0.550681780055165,0.135262470245361,1.55960327267647,1.65949050219781
3.75453616667073,-1.59982129901648,0.728404610753059,0.895825597643852,1.97294322451181
3.76446816662792,-1.62888239935041,0.941639117002487,-0.49455866932869,1.94538694736829
3.77440016658511,-0.83650603339076,1.03696568906307,-1.92723701655865,2.34292183014864
3.78433216665871,0.562718931287527,0.849848356246948,-3.421884739995,3.57046075430828
3.7942641666159,1.51260276854038,0.387600231170654,-4.29302514731884,4.56817972392851
3.80419616657309,1.39045384883881,0.103430228233337,-3.82233832061291,4.06870126147017
3.8141281666467,1.86668471306562,0.222377212643623,-2.64513768911362,3.24510659872143
3.82406016660389,1.26216082111001,1.20936616480351,-1.81557741701603,2.52030510377121
3.83399216667749,0.400592890530825,2.07877228796482,-0.913178379535675,2.30557230248928
3.84392316662706,-0.197085373699665,2.38906823515892,0.0506262894719839,2.39771822738982
3.85385516658425,-1.1190133805573,2.23591445446014,1.16039390645921,2.75645032817168
3.86378716665786,-2.00523185670376,1.59595131933689,1.59721724152565,3.01978779543523
3.87371916661505,-2.4497406989336,0.587590209245682,0.847131739854813,2.6578419687187
3.88365116657224,-3.06543905854225,-0.132085677981377,-0.840357740521431,3.18128344855005
3.89358316664584,-2.86614899218082,0.01719198346138,-2.36986890256405,3.71905689994313
3.90351516660303,-2.50818888187408,0.219935415387154,-3.36312431573868,4.20118890520422
3.91344716667663,-2.45575631439686,0.252085161209106,-3.73231108009815,4.47486670224101
3.92337916663382,-2.90355129182339,0.337861475944519,-3.89877955555916,4.8729090391698
3.93331116659101,-2.81552262961864,0.656356973648071,-3.89859185993671,4.85355443413546
3.94324316666462,-1.45759567201138,1.53287214159966,-3.3462486666441,3.95874503909711
3.95317416661419,1.0026947195828,2.66509365141392,-2.46392896771431,3.76551016854658
3.96310616657138,3.05628875076771,3.24473457098007,-1.34098435789347,4.65483000895816
3.97303816664498,4.12662917733192,3.3314359152317,0.0768353372812271,5.30409627491413
3.98297016660217,3.82937047451735,2.90124865829945,1.27176706552506,4.96978002303359
3.99290216667578,2.73401185870171,2.60638117432594,2.56712179899216,4.56707324227048
4.00283416663297,2.1220814448595,1.79713295996189,2.82955243885517,3.96727658963043
4.01276616659015,1.38761268675327,-0.0615507155656815,1.77269335269928,2.25204333478055
4.02269816666376,1.08978943526745,-1.89514691233635,-0.236562557816505,2.19890533591586
4.03263016662095,0.545734085440636,-2.95725562870502,-1.70383654117584,3.45633411356098
4.04256216657814,-0.367505397498608,-3.23147367060184,-2.74673744648695,4.25699998836237
4.05249416665174,-1.34587906211615,-3.38773056864738,-3.22798200577497,4.86908376239284
4.06242516660132,-2.64480790615082,-4.07642907679081,-2.95006092220545,5.68464091418861
4.07235716667492,-4.69485048472881,-5.18631773114204,-2.26200239181519,7.35228994959355
4.08228916663211,-3.46165954738855,-4.58162032306194,-0.244792221486568,5.74754337420962
4.0922211665893,-2.7601948133111,-4.19364703953266,-0.171664311289787,5.02342707077361
4.1021531666629,-1.87524766802788,-4.42124990880489,-2.06281903713942,5.22677978802781
4.11208516662009,-0.630754355192184,-5.15135255098343,-6.32292582213879,8.18007794054475
4.12201716657728,1.03252794474363,-6.68654545247555,-11.1076947891712,13.0060327376983
4.13194916665088,2.18242587983608,-7.56608246147633,-11.6857891201973,14.0913538702482
4.14188116660807,2.52146556973457,-7.04173456728458,-11.815103802681,13.9835793773831
4.15181316668168,2.20141558974981,-6.03496448457241,-12.7306608295441,14.2596196332767
4.16174516663887,1.75163869857788,-5.40720916628838,-13.1789574980736,14.3523889939751
4.17167616658844,1.59244386702776,-6.03251976370812,-11.5216367268562,13.1024915582803
4.18160816666205,1.18546157777309,-7.9144619089365,-7.49179066300392,10.9622513106869
4.19154016661923,0.803536654114723,-9.88274287104607,-2.59528315901756,10.2493791268153
4.20147216657642,0.69337540358305,-10.7251582467556,2.26231112480164,10.9830706313692
4.21140416665003,0.659723215699196,-10.2370174813271,5.66005972802639,11.7161443213693
4.22133616660722,1.08862700879574,-8.57491427242756,7.96766455471516,11.7557620765404
4.23126816668082,1.87507137447596,-6.58702876567841,9.29286990880966,11.5439279173648
4.24120016663801,2.15670865595341,-4.21336443543434,10.3080541348457,11.3428308697325
4.2511321665952,1.74003811508417,-2.08384825587273,10.581514377594,10.9242209204445
4.2610641666688,1.70056531637907,-0.698825300931931,9.48430307149887,9.66086351981731
4.27099616662599,2.36478299438953,0.495611168146133,8.2679372048378,8.61374568139124
4.28092716657557,2.53679989278316,0.82673197388649,6.65026991128922,7.16553761735082
4.29085916664917,2.48255995094776,0.73918395280838,3.48378862738609,4.34123024342684
4.30079116660636,2.35641182810068,0.887360583543778,0.200785199403763,2.52594540818672
4.31072316667996,2.20295954704285,0.920005003809929,-0.716951669454575,2.49268122094989
4.32065516663715,2.07856471180916,1.09837373256683,0.0253872947394848,2.35106372357392
4.33058716659434,2.00272193938494,1.4049502658844,1.34387054353952,2.7911948075861
4.34051916666795,2.4817080116272,2.36160971045494,2.21007210016251,4.07682398042967
4.35045116662513,3.00180205643177,3.3849391078949,2.52250754356384,5.17992979271832
4.36038316658232,2.89390894085169,3.55278752624989,2.28250945419073,5.119263381883
4.37031629157718,2.01447513520718,3.07800063192844,1.93755939871073,4.15768377634136
4.38024829165079,0.766500390172005,2.47833709180355,2.33955050468445,3.49330418840278
4.39017929160036,-0.394523626863956,2.68259202897549,2.95493720769882,4.0104367327661
4.40011129167397,-1.2067483663559,3.86125972688198,3.21799876213074,5.16924407735002
4.41004329163116,-1.79633920043707,4.79517993450165,3.27805551409721,6.07998627307474
4.41997529158834,-2.15356285393238,5.06722690522671,3.33714192062616,6.43825579433524
4.42990729166195,-2.58491516858339,4.94502536058426,3.74877245396376,6.72222858560994
4.43983929161914,-1.66620152235031,5.339495485425,3.67569570690393,6.69306943649238
4.44977129157633,0.334800604730844,5.89913892745972,3.23569272905588,6.73658956499977
4.45970329164993,1.58480506449938,5.89639190554619,3.07143683999777,6.83467401258824
4.46963529160712,2.3417654299736,5.60610688447952,3.00230082392693,6.77688054834822
4.47956729168072,2.89052457243204,5.36767146348953,3.09031574517488,6.83498944027488
4.48949929163791,3.15120981842279,5.31292105972767,3.04247470378876,6.88577561570347
4.49943029158749,2.83214889496565,5.42525133490562,2.28108536481857,6.53129159138833
4.50936229166109,2.58814078509808,5.45101124346256,1.484060754776,6.21405122474137
4.51929429161828,2.17238124042749,5.19762273788452,1.36520118623972,5.79640376941133
4.52922629157547,1.53683509200811,4.56707069635391,1.42240303516388,5.0242638505522
4.53915829164907,1.27615466997027,3.99909555673599,1.35132662057877,4.40992286203255
4.54909029160626,0.407680885344744,3.16902833104134,0.42325421333313,3.22305575445451
4.55902229167987,-0.974539499133825,2.00044532597065,-1.79925476834178,2.86161256269441
4.56895429163706,-2.40136829182506,0.461784440875053,-5.97727643966675,6.4581458778052
4.57888629159424,-3.7005332171917,-1.70736533582211,-14.6348112845421,15.191666920245
4.58881829166785,-4.80348999738693,-4.41136986851692,-15.3512940073013,16.6792064550584
4.59875029162504,-5.33736768364906,-6.2102663487196,-5.17360120654106,9.68612674689029
4.60868129157461,-6.24169747173786,-7.57071345627308,-0.0980974213778973,9.81244682379345
4.61861329164822,-7.24540829122067,-8.85024445474148,0.564261134415865,11.4516880346517
4.62854529160541,-6.69676813960075,-8.98940000116825,-1.01177749201655,11.2552081095787
4.63847729167901,-4.13897791206837,-6.45596342682839,-2.42809357568622,8.04401891702302
4.6484092916362,-2.47873119413853,-2.81523494660854,-2.36134527012706,4.4323365871911
4.65834129159339,-2.83207551240921,-0.395873456597328,-1.58964992120862,3.27175096448748
4.66827329166699,-3.19320159763098,0.98675915658474,-0.648567312955856,3.40453662568809
4.67820529162418,-2.49935929387808,1.53248096287251,0.14386723279953,2.93530110246543
4.68813729158137,-0.99944425240159,1.91364516377449,0.32195573374629,2.1827922761885
4.69806929165497,0.0883837343752384,2.29928189992905,-0.224411605149508,2.31189738275063
4.70800129161216,0.423278333097696,2.12892678022385,-0.602311305552721,2.25261463451272
4.71793229167815,0.39756936840713,0.902858628630638,-0.443801182955504,1.08174608664933
4.72786429163534,1.16699139297009,-1.90696296572685,0.684058742523193,2.3380147619599
4.73779629159253,1.46694186151028,-5.39435347795487,2.65131702661514,6.18711967281985
4.74772829166614,1.73842808425427,-8.5277939003706,4.2102794444561,9.66808429895662
4.75766029162332,2.51450562894344,-11.2558866226673,4.63664086818695,12.4304529587972
4.76759229158051,3.7786610814929,-11.6319280779362,4.69834068775177,13.1016959053877
4.77752429165412,4.26003018647432,-6.95083901524544,6.13956357121468,10.2056974798647
4.78745629161131,2.90649185657501,-0.620161539316177,6.06336265683174,6.75253004106206
4.7973882915685,1.88665149271488,3.16921719610691,2.24417890906334,4.3173754141779
4.8073202916421,2.0940227034688,5.37474951803684,-3.66170887470245,6.83234771856313
4.81725229159929,4.10768595278263,6.400370439291,-9.50228910684586,12.1709212435591
4.82718329166528,7.13686701178551,6.34167491912842,-8.62478342056274,12.8661804967686
4.83711529162247,8.995612667799,5.92464097380638,-2.59517790913582,11.0795923353541
4.84704729157966,9.62829192638397,5.20477856040001,1.58357100963593,11.0589973517055
4.85697929165326,9.01640185832977,4.18709172606468,3.229337682724,10.452552868196
4.86691129161045,8.09021927118302,3.54105041027069,3.72813324451447,9.5859096257347
4.87684329156764,6.9593899834156,3.01637448728085,4.0141369342804,8.58166180386633
4.88677529164124,5.38354548454285,2.21233789622784,4.59198217391968,7.41372384411664
4.89670729159843,4.31715836048126,1.01463985025883,5.63513714075089,7.17092190239697
4.90663929167204,3.71640168339014,-0.604346575140953,6.93218990564346,7.88873457172282
4.91657129162923,2.9229719415307,-2.20365887403488,7.20077824831009,8.07781435695474
4.92650329158641,2.52198714137077,-2.93126884818077,6.21351564645767,7.31850619254564
4.9364342916524,1.60081284061074,-3.00339951574802,4.74056109309197,5.83574587171143
4.94636629160959,0.405972913652658,-2.61220207750797,3.28094520807266,4.21343270490126
4.9562982916832,-0.627531516104937,-2.14470198333263,1.96800204992294,2.97767937654758
4.96623029164039,-1.57460605859756,-1.66880645692348,0.993603322505951,2.50030933944913
4.97616229159758,-2.50237294882536,-1.26724775254726,0.249529891423881,2.8160348733748
4.98609429167118,-3.35465140789747,-1.10859817385674,-0.629340498447418,3.58869690034879
4.99602629162837,-4.1392112159729,-1.07776171267033,-1.64923290252686,4.58416938676039
5.00595829158556,-4.71585631459951,-1.06865116596222,-2.78259052634239,5.57890008261046
5.01589029165916,-4.83815404593945,-0.912573192715645,-3.38323522925377,5.97384340443966
5.02582229161635,-4.30031136274338,-0.503714239597321,-3.24426328539848,5.4103280969547
5.03575429157354,-3.46309591591358,-0.0399739050865173,-2.60483458578587,4.33356602063606
5.04568529163953,-2.68989666312933,0.193955651521683,-1.67720364332199,3.17587388198021
5.05561729159672,-1.8620195120573,0.396210840940475,-0.699860258102417,2.02827613372343
5.06554929167032,-1.12972942650318,0.791666806340218,0.0353569070622325,1.37995471673716
5.07548129162751,-0.634108318090439,1.0607960164547,0.34864721339196,1.28410919590338
5.0854132915847,-0.243492385447025,1.23835490584373,0.421165551356971,1.33048556408845
5.0953452916583,-0.0909244957566261,1.43419569969177,0.556490038633347,1.54105993784834
5.10527729161549,-0.0938136050105095,1.61943666100502,0.676877850070596,1.75770865487098
5.11520929157268,-0.0063892525434494,1.82958442211151,0.569580785036087,1.91620516930299
5.12514129164629,0.213788529932499,1.98650264024735,0.316759532466531,2.02292730384678
5.13507329160348,0.541868783533573,1.98270019590855,0.0201447542756796,2.05551153160199
5.14500529167708,0.693208173215389,1.86244986712933,-0.387078513354063,2.02462017536205
5.15493629162665,0.735682640075684,1.79916837573051,-0.877743083238602,2.13276081905841
5.16486829158384,0.765458123981953,1.72257160484791,-1.53595947146416,2.43153255610093
5.17480029165745,0.847115660011768,1.58263545513153,-2.25493208482862,2.88219684138091
5.18473229161464,0.986483460366726,1.25445053637028,-2.87692950367928,3.28991172144741
5.19466429157183,1.17743744373322,0.630694713592529,-3.16678066134453,3.4369513398831
5.20459629164543,1.33587973862886,-0.164237177968025,-2.897440366745,3.19479407873957
5.21452829160262,1.3016741117835,-0.904254359006882,-2.12224823668599,2.64876745245541
5.22446029167622,1.03460487574339,-1.48588099300861,-1.0564247842133,2.09625449289832
5.23439229163341,0.420213661193848,-1.89022180259228,-0.0804518401622772,1.93803779184892
5.2443242915906,-0.434716510176659,-2.12910862863064,0.550834757834673,2.24176290610055
5.25425629166421,-1.47744287610054,-2.24899584531784,0.797925081253052,2.80668918829461
5.26418729161378,-2.67069820761681,-2.5150043964386,0.835991478413343,3.76254671495954
5.27411929157097,-3.70185614973307,-2.99982511281967,0.742501516789198,4.8222399528906
5.28405129164457,-4.58426911175251,-3.53846360206604,0.552527965307236,5.8173477723582
5.29398329160176,-5.39064985156059,-4.09483494222164,0.233420117944479,6.77357099155466
5.30391529167537,-6.2395685005188,-4.62445000827313,-0.243228383660316,7.77025823240783
5.31384729163256,-6.91467574059963,-5.08386808097363,-0.830084913522005,8.62249941873216
5.32377929158974,-7.2410433447361,-5.46165376067162,-1.33385762527585,9.16741766727751
5.33371129166335,-7.16487868309021,-5.96893538653851,-1.87256978943944,9.51158208756006
5.34364329162054,-6.86560181379318,-6.40187668204308,-2.66277172207832,9.75760557521911
5.35357529157773,-6.5107904291153,-6.65209658145905,-3.53437172055244,9.95653375427208
5.36350729165133,-5.95331805825234,-7.02562841176987,-4.40408306837082,10.2077126799343
5.37343820824754,-5.28356511354447,-7.54637442111969,-5.0152550983429,10.4888803460736
5.38337020832114,-4.58741520613432,-7.21088925361633,-6.11170275807381,10.5068650274208
5.39330220827833,-4.04625159680843,-5.63822271645069,-7.33224938392639,10.0957212923626
5.40323420823552,-3.67964316219091,-3.67021774291992,-7.75841668009758,9.33827079621912
5.41316620830912,-2.96594546824694,-2.40526034474373,-7.35459978103638,8.28687201456808
5.42309820826631,-1.86013261556625,-2.18031503498554,-5.87116935610771,6.53333732539317
5.43303020833992,-0.549082201123238,-2.8940600913763,-2.26083645701408,3.71328110455583
5.4429622082971,1.09816937237978,-4.24272096633911,1.57408916473389,4.65665264618042
5.45289420825429,3.02709652662277,-5.42872165739536,3.74312901377678,7.25571133857616
5.4628262083279,4.41917999446392,-5.81040041327477,4.51234777450562,8.58202698808035
5.47275820828509,5.03370657205582,-5.27336640000343,4.83641800761223,8.74857326577305
5.48268920823466,5.19614982426167,-3.97353152990341,5.14771090507507,8.32393256685444
5.49262120830826,4.94098025679588,-2.02819270312786,5.82512370228767,7.90309544963374
5.50255320826545,4.31149240851402,-0.39553490281105,6.51276795744896,7.8205857271428
5.51248520833906,3.98262687385082,0.241034508347511,5.67465145468712,6.93693618124859
5.52241720829625,3.94923517942429,0.68701392531395,2.80281487584114,4.89123888848358
5.53234920825344,3.86553257972002,1.22654177606106,-1.1100658249855,4.20463946006084
5.54228120832704,4.51880894780159,1.18076918721199,-3.74502351164818,5.98657258228768
5.55221320828423,5.56975357532501,0.210152438879013,-3.90619616389275,6.80622416676258
5.56214520824142,5.59452179610729,-0.698603691458702,-2.31049218177795,6.09303662937425
5.57207720831502,4.08659095287323,-0.897268690466881,0.0398009736835957,4.18412485909582
5.58200920827221,2.06011353045702,-0.291453294754028,2.27453882217407,3.08261895714863
5.5919402083382,0.39673519000411,0.687305116653442,3.93522378891706,4.01444559101557
5.60187220829539,-0.212780177593231,1.59273885905743,4.62221578717232,4.89356426955989
5.61180420825258,0.0794100125133991,2.1256096547842,4.54142510086298,5.01488427596764
5.62173620832618,0.693424227833748,2.225185983181,4.69859796524048,5.2449130267769
5.63166820828337,1.53747331559658,2.3341219496727,4.73953315258026,5.50228352382198
5.64160020824056,2.75582606613636,2.7957508546114,3.87859730601311,5.51854303327147
5.65153220831417,3.57790277928114,3.13089103639126,3.5338627204299,5.92385454806134
5.66146420827135,3.95854453146458,3.56965323507786,3.6241650724411,6.4457017848014
5.67139620834496,3.889599134624,3.86488792419434,3.27164316505194,6.3851381421299
5.68132820830215,3.54062648713589,3.88587182700634,3.0148021709919,6.06012111327383
5.69125920825172,3.08942609131336,3.91918458402157,2.95702203243971,5.80073621858932
5.70119120832533,2.72240893632174,4.02081270039082,3.0076279297471,5.71176600991177
5.71112320828252,2.40386154457927,4.33433748006821,3.31369984835386,5.96201630336679
5.7210552082397,2.2541247305274,5.04028118133545,3.39125877857208,6.47967196630676
5.73098720831331,2.07100616231561,6.06106703996658,3.30538569241762,7.20771633480103
5.7409192082705,1.61274349942803,6.56410475671291,2.9044023540616,7.35689920321918
5.7508512083441,1.27122342064977,6.41972063004971,1.9444731464982,6.82713686478797
5.76078320830129,1.4542269448936,6.21636791825295,0.840938661396504,6.43934654561861
5.77071520825848,2.2920901170373,5.96167139053345,0.370637458562851,6.39785706303407
5.78064720833208,2.72729633152485,5.35126593053341,-0.186106641590595,6.00906215821409
5.79057920828927,2.74829660654068,4.73576579153538,-0.924817700833082,5.55300816221027
5.80051020823885,2.56040568709373,3.86110828399658,-1.5375252096355,4.8813746254015
5.81044220831245,2.16805181577802,2.5029392516613,-2.28299638107419,4.02209224774905
5.82037420826964,1.46784087091684,1.05887228250504,-3.84384028673172,4.24863218964564
5.83030620834325,-0.0123940506577492,-0.763716530799866,-7.46635878324509,7.50532677716632
5.84023820830043,-2.28691840097308,-3.1348694819212,-14.2572811281681,14.7759083514012
5.85017020825762,-4.19699632465839,-5.57432375907898,-15.3308240747452,16.8440502947188
5.86010220833123,-5.3919233751297,-7.07804519176483,-9.55490936994553,13.0563338838974
5.87003420828842,-7.0378561091423,-8.20413998901844,-5.09018716692925,11.9477753982394
5.87996620824561,-8.68811870634556,-8.88230415344238,-2.80575368642807,12.7377779647282
5.88989820831921,-9.04355048060417,-8.09941869556904,-2.26513401433826,12.349786257433
5.8998302082764,-6.77531320273876,-5.74448709011078,-2.64491286367178,9.26820182020612
5.90976120834239,-2.72501299381256,-2.60898084640503,-3.112674036026,4.8909320714876
5.91969320829958,0.493224188536406,-0.0604186946153641,-2.94333984017372,2.98499077612818
5.92962520825677,2.6342472499609,1.70680926561356,-2.34249750137329,3.91659941620929
5.93955720833037,3.60432985514402,2.60277344226837,-1.58447966694832,4.71976684926626
5.94948920828756,3.36107515901327,2.84887690186501,-0.900451329946518,4.49708110046044
5.95942120824475,2.43605806812644,2.39893541157246,-0.0986077371239662,3.42037914652761
5.96935320831835,1.51444259494543,1.06077847480774,1.27083984330297,2.24361789378824
5.97928520827554,0.982605513855815,-0.910901473760605,3.19015666007996,3.46010904547987
5.98921720834915,0.959606733620167,-3.27227612614632,6.27402029514313,7.14086596939224
5.99914920830634,0.746059986054897,-5.42054783463478,9.37570858240128,10.8555449311616
6.00908120826352,-0.638653651177883,-6.62296224474907,9.12867307662964,11.2962019954283
6.01901220832951,-2.58678072273731,-5.80067064642906,4.80458693504334,7.96387280613259
6.0289442082867,-2.51483190357685,-2.69934956431389,1.59485262751579,4.01925645823995
6.03887620824389,-0.0776457613706589,0.465660560131073,-0.08759596824646,0.480147555625819
6.0488082083175,1.58879783570766,2.05943379163742,-4.14799490332604,4.89606043905773
6.05874020827469,4.36675824433565,2.94274167001247,-5.54321540236473,7.64562247942669
6.06867220834829,8.8396949082613,3.46169141471386,-4.40450055956841,10.4653303197311
6.07860420830548,12.4050738286972,3.53991371154785,-0.674255300760269,12.9178738959333
6.08853620826267,12.693505282402,3.59104644298553,2.68168863415718,13.4615060390959
6.09846820833627,10.2763458538055,3.82967365264893,3.49712027907372,11.510844219219
6.10840020829346,7.75413768768311,4.24638658583164,3.31983620882034,9.44350373374592
6.11833120824304,6.11988418221474,4.22539391219616,3.50852351903915,8.22293581396556
6.12826320831664,5.10102205753327,3.49150344371796,3.80936042547226,7.2610088266087
6.13819520827383,4.3542481264472,2.26370743989944,4.03283632993698,6.35197740740509
6.14812720834743,3.6538861772418,0.646866357922554,4.10743978500366,5.53537549482252
6.15805920830462,2.81345359236002,-0.811286553740501,3.92974056243896,4.90067014567618
6.16799120826181,1.73154898121953,-1.70374707877636,3.52701475381851,4.28262175033645
6.17792320833541,0.522175361216068,-2.1596094596386,2.91382660388947,3.6642824131821
6.1878552082926,-0.664527141898871,-2.35629926919937,2.24663473963738,3.32281660969956
6.19778720824979,-1.61057257443666,-2.3391055315733,1.55956935882568,3.24000235962141
6.2077192083234,-2.35416152715683,-2.19209191203117,0.853719213008881,3.32808953326054
6.21765120828059,-2.99267045974731,-2.06226267457008,0.367159534692764,3.65291800393671
6.22758220834658,-3.5744678324461,-2.04283413112164,-0.0981583786010742,4.11820672620462
6.23751420830376,-4.06113626897335,-2.08084688007832,-0.507599129676819,4.59134058962642
6.24744620826095,-4.43592408120632,-1.99509103059769,-0.919175868630409,4.95001969208911
6.25737820833456,-4.57056089937687,-1.6836776804924,-1.11933483123779,4.9977702959543
6.26731020829175,-4.17165361493826,-1.04664341568947,-1.25134741902351,4.47928863612632
6.27724220824894,-3.49656771719456,-0.332035310268402,-1.28037182807922,3.73839340711102
6.28717420832254,-2.72938437223434,0.0936156767606735,-1.14712372362614,2.96212690201455
6.29710620827973,-1.87457114517689,0.222505851387978,-0.777438703402877,2.04155253906933
6.30703820823692,-0.968678103983402,0.377387484312058,-0.233749462366104,1.06555027737254
6.31697020831052,-0.249308172315359,0.556057344675064,0.28601125460118,0.673169200950882
6.3269012082601,0.321766137778759,0.688544726371765,0.726182010993362,1.05117439120528
6.3368332083337,0.595994119942188,0.879485553503037,1.08432345807552,1.51804518758799
6.34676520829089,0.513772912323475,0.880936832427979,0.953013120889664,1.39579594380892
6.35669720824808,0.358077639341354,1.02889477729797,0.837103765010834,1.37389474558375
6.36662895826157,0.30135672390461,1.4156424844265,0.921516509056091,1.71582405718613
6.37656095833518,0.0942556545138359,1.60212890267372,0.678641881942749,1.74248556754916
6.38649295829237,0.0247957026958466,1.64824472308159,0.374580309167504,1.69045434781733
6.39642495824955,0.0488754138350487,1.49989501476288,0.0665028686821461,1.50216393676956
6.40635695832316,0.134589748084545,1.15126179814339,-0.370812144130468,1.21697155857828
6.41628895828035,0.301906069815159,0.767331864237785,-0.967369277849793,1.27112107393179
6.42622095823754,0.607150022685528,0.535711957812309,-1.6516666598618,1.83946220594205
6.43615195830353,0.955954270362854,0.643471464514732,-2.5121223038435,2.76381304760971
6.44608395826072,1.20497812181711,1.01371306657791,-3.3783925652504,3.72734795536288
6.45601595833432,1.27769672691822,1.35502615392208,-3.80229289591312,4.23391498144469
6.46594795829151,1.16522494912148,1.27983856201172,-3.51410702526569,3.91722913701625
6.4758799582487,1.14546896159649,0.72706618309021,-2.61771951019764,2.94841988370783
6.4858119583223,1.04955620616674,-0.189689522981644,-1.53600858807564,1.86999270792007
6.49574395827949,0.653636264204979,-1.26722494840622,-0.543944837450981,1.52609810364097
6.50567595823668,-0.117641008794308,-2.06668375432491,0.122686132639647,2.07366174543553
6.51560795831028,-1.43572883963585,-2.58137964963913,0.240157425999641,2.96353062845585
6.52553995826747,-2.93185941696167,-2.95817831933498,0.149177674055099,4.16759793985059
6.53547195834108,-4.16413672685623,-3.37009419679642,0.173580297678709,5.35982272980889
6.54540295829065,-5.07795362234116,-3.83470576643944,0.0830292928218842,6.36376265815108
6.55533495824784,-5.83165153384209,-4.33778324425221,-0.452037863284349,7.28209182282953
6.56526695832145,-6.44041275680065,-4.9439915728569,-1.31988833472133,8.2258175500417
6.57519895827863,-6.90441153824329,-5.5270320636034,-2.33743498206139,9.14781856055811
6.58513095823582,-7.30679294586182,-5.93062501430512,-3.30357217848301,9.97372174027552
6.59506295830943,-7.49716133058071,-6.28885760486126,-3.95197635412216,10.5534484930053
6.60499495826662,-7.51302482664585,-6.6492472332716,-4.71692547798157,11.0863617467499
6.61492695834022,-7.2126042419672,-7.12373650431633,-5.83034526586533,11.6945375134449
6.62485895829741,-6.52585402607918,-7.69099769890308,-7.02390114426613,12.291192117067
6.6347909582546,-5.14575618088245,-7.58000643610954,-7.47364909172058,11.8233131985382
6.64472195832059,-3.4558020991087,-6.31425381660462,-6.47410967588425,9.68124297309432
6.65465395827778,-2.10400273114443,-4.75423597633839,-4.55040028452873,6.90910485959018
6.66458595823497,-0.794200404882431,-3.49519362151623,-2.5479862010479,4.39765464943913
6.67451795830857,0.649273948967457,-2.76027579724789,-0.83175940990448,2.95508085399451
6.68444995826576,2.21676833152771,-2.76189489126205,0.625163247585297,3.5962416926807
6.69438195833936,3.84536407113075,-3.26823453068733,1.78669860363007,5.35354776641938
6.70431395829655,5.23168803155422,-3.87828915774822,2.77033125400543,7.0771761111007
6.71424595825374,6.34835010051727,-4.06007090628147,3.43221384644508,8.28044785325651
6.72417795832735,6.75972978830338,-3.83926834881306,4.00320264101029,8.74411571572938
6.73410995828453,6.4796341252327,-3.29796645283699,4.66570152997971,8.63892423208893
6.74404195824172,6.0478002923727,-2.05232416212559,5.03012456774712,8.12958030958062
6.75397295830771,5.57974295854569,-0.197414279580116,4.78299433708191,7.35183913791508
6.7639049582649,4.94447689175606,1.7684178686142,4.11461314916611,6.67122139180182
6.77383695833851,3.9126055893302,3.03612989008427,3.13764281630516,5.86271009430216
6.7837689582957,3.01894901633263,3.34628491938114,2.01940755397081,4.93859117501416
6.79370095825288,2.30800565332174,2.74605478405952,1.02021867871284,3.72941726348982
6.80363295832649,1.8153878210485,1.81042602002621,-0.100324041098356,2.56580206329745
6.81356495828368,1.39722697108984,0.852767286300659,-0.910218518972397,1.8729530174582
6.82349695824087,0.834325021952391,-0.103824330568314,-0.948413847237825,1.26742516919393
6.83342895831447,0.515649868547916,-0.383852750658989,-0.494446402788162,0.810996280109908
6.84336095827166,0.176512968689203,-0.155233635306358,0.319061800539494,0.396301327539294
6.85329195833765,0.0551851442456245,0.492561260461807,1.18695203304291,1.28628034432538
6.86322395829484,0.194550605714321,1.30822445511818,2.39728708148003,2.73793471693247
6.87315595825203,0.425852423608303,1.96228464245796,3.30121399641037,3.86392613216339
6.88308795832563,0.973432475030422,2.6353576362133,3.99625614881516,4.8849507531944
6.89301995828282,2.09710009306669,3.35871551513672,4.10637997716665,5.70448553585997
6.90295195824001,3.21535231232643,3.89750954031944,3.89005638688803,6.37664565445128
6.91288395831361,4.06496064037085,4.16866714954376,3.75156537652016,6.92646616867175
6.9228159582708,4.48651389867067,4.30616208672524,3.55134355634451,7.16127641802107
6.93274795834441,4.47868301510811,4.42805431365967,3.25781771600246,7.0908139748013
6.9426799583016,4.26794439285994,4.56547908425331,3.08099762231112,6.96789028027751
6.95261095825117,3.94936352580786,4.6164182728529,2.98618005037308,6.76949490155342
6.96254295832478,3.55702968120575,4.68499266386032,2.97273554742336,6.59080974147473
6.97247495828196,3.1080371940136,4.84977538704872,2.88872772306204,6.44398668234057
6.98240695823915,2.74297154724598,5.04779719233513,2.60584410756826,6.30829397831899
6.99233895831276,2.39462542891502,5.1631943321228,2.22770730257034,6.11191348777097
7.00227095826995,2.00174545437098,5.14254079699516,1.70397804379463,5.77548715578077
7.01220295834355,1.55860924601555,4.88208885490894,0.734424319267273,5.17720324593525
7.02213495830074,1.05428901560605,4.35268311917782,-0.701380826532841,4.53313475734298
7.03206695825793,0.190804952457547,3.54982708096504,-2.28975356966257,4.22855179043814
7.04199895833153,-1.18126802779734,2.28906915307045,-4.01597062110901,4.7710849678711
7.05192995828111,-3.15999262869358,0.522534087896347,-5.81933612823486,6.64253477670919
7.0618619582383,-5.24425018966198,-1.71134202718735,-7.37142806768417,9.20699752051826
7.0717939583119,-7.04252569556236,-4.1581105864048,-7.25464279890061,10.9323782390232
7.08172595826909,-8.20174847781658,-6.15988615393639,-4.19903729528189,11.0835368781807
7.09165795834269,-8.59288744390011,-7.39786917686462,-0.541199423521757,11.3516113304482
7.10158995829988,-7.98036704599857,-7.61892316460609,0.704304288178682,11.0557809722958
7.11152195825707,-6.36224834740162,-6.17210800409317,-0.887841663211584,8.9085006632508
7.12145395833068,-3.84930158615112,-3.04552928924561,-2.72067786812782,5.61199246390433
7.13138595828787,-2.33715665459633,-1.00743549585342,-3.17206771373749,4.06684657775101
7.14131795824505,-1.49831787452102,-0.16944236934185,-2.94106030315161,3.30507229518684
7.15124995831866,-0.813529545664787,0.542504668235779,-2.4512077653408,2.6390454989625
7.16118095826823,-0.0972743161395192,1.2025740391016,-2.00557143375278,2.34050494295285
7.17111295834184,0.687442526221275,1.67738549172878,-1.58530178546906,2.40819041309675
7.18104495829903,1.45377276241779,1.86617337405682,-1.25704845428467,2.67884846962383
7.19097695825622,2.00720090657473,1.78992626667023,-0.829129624664784,2.81427565351498
7.20090895832982,2.4375173869729,1.08369195878506,-0.217329165190458,2.67639893128304
7.21084095828701,2.68142053931952,-0.488993289470673,0.658389319628477,2.80403406577608
7.2207729582442,2.56531383991241,-2.92961934864521,1.92886444285512,4.34557506713592
7.2307049583178,2.25326109677553,-5.84384999513626,3.15572357654572,7.01329876929984
7.24063695827499,1.68169342786074,-7.98701065242291,3.68302782297134,8.95461478188805
7.25056895834859,0.54580249786377,-8.24091663658619,3.27117568016052,8.88319749348798
7.26049995829817,-0.933874599337578,-5.82069677531719,1.98310087636113,6.2197525516133
7.27043195825536,-1.29313454568386,-2.62057353615761,-0.0865693433582783,2.92354183531895
7.28036395832896,0.214269755780697,0.290928799510002,-0.97548397064209,1.04025000437698
7.29029595828615,2.60495533078909,2.89957693934441,-0.607376017570496,3.94490105443776
7.30022795824334,4.89907706290484,4.77155893743038,-1.00344871804118,6.91199248345877
7.31015995831694,7.1820385068655,5.31477521181107,-2.73172559738159,9.34295656661049
7.32009195827413,9.01514470696449,5.10494436979294,-1.75697369813919,10.508103905184
7.33002395834774,9.33977568805218,4.50331207215786,1.6787765443325,10.5037859940202
7.33995595830493,8.94217496395111,3.79606853485107,4.07795110702515,10.5357636001615
7.34988795826212,8.37243454992771,3.32034023880959,5.29253942012787,10.4466881406448
7.35981895832811,7.21561789691448,2.8323012149334,5.72201390147209,9.6347555700716
7.36975104163867,5.89792738437653,2.33421316623688,5.78545969963074,8.58519903513387
7.37968304159585,4.38616603016853,1.52453050374985,5.52501302003861,7.217230394872
7.38961504166946,3.13358104795218,0.575934954285622,4.83832186102867,5.79313297677181
7.39954704162665,2.31754597038031,-0.433532449007034,4.51332776784897,5.0920621804142
7.40947904158384,1.49470122545958,-1.67186513543129,4.65731662273407,5.16912593277201
7.41941104165744,0.262829931601882,-2.7518008428812,4.27935377240181,5.09454180090783
7.42934304161463,-1.1140197122097,-3.12998998045921,3.41168778061867,4.762088901878
7.43927504157182,-2.31002308890223,-2.87364512264729,2.32083005905151,4.35663805303734
7.44920704164542,-3.31552154839039,-2.45729354739189,1.03829366482794,4.25547041469174
7.459138041595,-4.11851265728474,-2.07853722989559,-0.612863008193672,4.6538225783853
7.4690700416686,-4.52501752138138,-1.48629614531994,-2.14578547239304,5.22391185740479
7.47900204162579,-4.59370534837246,-0.920284500718117,-3.06981862306595,5.60114620131007
7.48893404158298,-4.15626403570175,-0.309727013111114,-3.24355343341827,5.28120255553203
7.49886604165658,-3.32070598214865,0.268114718198776,-2.55892751097679,4.20084321635865
7.50879804161377,-2.13498230293393,0.727241599559784,-1.56844952523708,2.74719196475015
7.51873004157096,-1.31247158020735,0.998155964612961,-0.775337871909142,1.82209928219101
7.52866204164457,-0.751534441709518,1.07461649537087,-0.250878880620003,1.33511978561474
7.53859404160176,-0.158493750393391,1.09197804808617,0.16924182811752,1.11632393273655
7.54852604167536,0.288814153969288,1.08975025892258,0.416088487096131,1.20170664949844
7.55845704162493,0.663345858156681,1.01143031358719,0.589020474739373,1.34534907233732
7.56838904158212,0.904514560103416,0.884185545444489,0.647416580915451,1.4209429606625
7.57832104165573,1.14194659888744,0.818082187771797,0.610855074338615,1.53181083117509
7.58825304161292,1.1514467163384,0.761422083377838,0.596373860053718,1.5037469569636
7.5981850415701,0.96187062934041,0.646511431932449,0.484217247180641,1.2560407961823
7.60811704164371,0.685962303578854,0.525859399437904,0.254148058891296,0.900923762449751
7.6180490416009,0.323322374224663,0.396409646272659,0.0544574582576752,0.514435204950219
7.6279810416745,-0.0638916483521462,0.370418772697449,-0.0393891104310751,0.377946705127046
7.63791304163169,-0.313481510281563,0.356731610298157,-0.0447989543527365,0.477006336839904
7.64784504158888,-0.494479731917381,0.348305187821388,-0.101976098790765,0.613372508240271
7.65777604165487,-0.596083874702454,0.467429927587509,-0.364214876890182,0.840511272638794
7.66770804161206,-0.564452484548092,0.690745033621788,-0.648070299625397,1.10260166063825
7.67764004156925,-0.405232217609882,0.914451318383217,-0.901909113898873,1.34680154945548
7.68757204164285,-0.402115066945553,1.1071164894104,-1.11739107057452,1.62356590651218
7.69750404160004,-0.320351403951645,1.14989004135132,-1.41953673005104,1.85471201462026
7.70743604167365,-0.18658523619175,0.924092207551002,-1.80658147573471,2.03776767245165
7.71736804163083,0.129332808852196,0.393034048676491,-2.09239717751741,2.13291553685266
7.72730004158802,0.442902027368546,-0.435118798613548,-2.32753067582846,2.40891876610162
7.73723204166163,0.566986083090305,-1.1994849550724,-2.34278766945004,2.69237654127173
7.74716404161882,0.45362494379282,-1.61203467071056,-2.0255504925549,2.62817163958014
7.75709504156839,-0.0353820866346359,-1.66099983930588,-1.4190730458498,2.18493493442853
7.767027041642,-0.879086481034756,-1.51942413032055,-0.706609260588884,1.89228416895782
7.77695904159918,-1.91166500419378,-1.40119635343552,-0.10056406930089,2.37232532363809
7.78689104167279,-2.9007732796669,-1.46627937197685,0.359584466814995,3.27013177188457
7.79682304162998,-3.75817126840353,-1.81110839009285,0.71036902025342,4.23185408872451
7.80675504158717,-4.33174745589495,-2.3054372638464,0.913121076822281,4.99127910461046
7.81668704166077,-4.65562034547329,-2.86509181559086,0.97988283097744,5.5537124768388
7.82661904161796,-4.91118635416031,-3.37544030606747,0.934429353922605,6.032122916734
7.83655104157515,-5.17370704114437,-3.79456346154213,0.723577734231949,6.4567423015584
7.84648304164875,-5.42194765806198,-4.1478978395462,0.315984118580818,6.83391680204487
7.85641404159833,-5.53303890824318,-4.30560133874416,-0.346077398657799,7.01943673054969
7.86634604167193,-5.4358043897152,-4.29861216187477,-1.20786810815334,7.03455622254586
7.87627804162912,-5.02477319598198,-4.21274463057518,-2.06685405448079,6.87513262970415
7.88621004158631,-4.43672953516245,-4.17212811648846,-2.91553399085999,6.75215228208282
7.89614204165991,-4.0576174145937,-4.36030496478081,-3.77220780193806,7.05025319900701
7.9060740416171,-3.91045176744461,-4.90052337169647,-4.56567204236984,7.75578000851827
7.91600604157429,-3.91619022488594,-5.68669145643711,-5.2376258790493,8.66647162616333
7.9259380416479,-4.22408705949783,-6.27057686984539,-5.80626877069473,9.53288008968968
7.93587004160509,-4.80786634594202,-6.17727343440056,-6.11864808082581,9.93539834233062
7.94580204167869,-5.50807246685028,-5.32161586940289,-5.74756038665772,9.57564139678548
7.95573304162826,-5.92109873056412,-3.97582305371761,-4.18269111156464,8.26810039043566
7.96566504158545,-5.79464684486389,-2.45065520346165,-3.48965279996395,7.19453401182043
7.97559704165906,-4.74814668595791,-1.3407431602478,-4.70721559166908,6.81911781681303
7.98552904161625,-2.9535411849618,-1.73775857806206,-6.01124408483505,6.91941224775329
7.99546104157344,-0.166015023887157,-3.6502840000391,-5.80458477258682,6.85896046433018
8.00539304164704,3.06282301425934,-5.90698238253593,-3.57273530244827,7.55233495189579
8.01532504160423,5.93225989580154,-7.44908493876457,0.168915535211563,9.52413284001753
8.02525704167783,8.15569873094559,-7.4082538318634,3.18375980615616,11.4688261444039
8.03518904163502,8.91357272386551,-6.14223224043846,5.00611473083496,11.9264403866956
8.04512104159221,8.60298850893974,-4.69204674482346,6.39186741828919,11.6996873049473
8.0550520416582,7.83337740004063,-3.39737788975239,7.80596389889717,11.5687964113875
8.06498404161539,6.7756003010273,-1.84861886322498,9.13483604192734,11.5226464257846
8.07491604157258,5.90739811956883,0.155204983949661,9.95994716763497,11.5811048139721
8.08484804164618,5.59343538343906,2.71642343401909,10.5426128518581,12.2397778331864
8.09478004160337,5.39986447870731,5.1159114074707,10.3565369081497,12.751036924398
8.10471204167698,4.51493750631809,5.27414407968521,7.26113086938858,10.0461573729274
8.11464404163417,2.81029404938221,3.39312170147896,1.93909458518028,4.81363847160503
8.12457604159135,0.740279574841261,1.4674932539463,-3.85278360307217,4.18873391270045
8.13450804166496,-1.01495530754328,0.420832881331444,-5.9702983725071,6.07055987921056
8.14443904161453,-0.746995613649488,1.04583240687847,-4.32630340576172,4.51316618670244
8.15437104157172,-0.248879498317838,1.75124751985073,-1.2711202172935,2.17820005676213
8.16430304164533,-0.693310353308916,2.09803301632404,2.21418430075049,3.12810388275087
8.17423504160252,-1.56486342787743,2.18150143504143,4.15102376103401,4.94355583802439
8.18416704167612,-2.21724312543869,2.27851434409618,4.25510390728712,5.31165736426657
8.19409904163331,-1.74017610937357,2.87444385230541,3.3353982809186,4.73450335769716
8.2040310415905,-0.0865718649700284,4.06085092484951,2.92160135418177,5.00337480051337
8.2139630416641,1.41968232572079,4.9987296974659,3.23687035828829,6.122101453803
8.22389504162129,2.1690363407135,5.32234735608101,3.71330119729042,6.84256573281666
8.23382704157848,3.16050601422787,5.30082083165646,4.03381427675486,7.37286629301284
8.24375804164447,3.37254885792732,5.17834388315678,4.06659815311432,7.39773963520256
8.25369004160166,2.91015689134598,5.08329505383968,3.6326701399684,6.89240118409089
8.26362204167526,2.74981805205345,5.0803234988451,3.1765428802371,6.59254206223228
8.27355404163245,2.62199324011803,5.2268681716919,2.99951053261757,6.57206686444639
8.28348604158964,2.52371879428625,5.44380513489246,3.23852833628654,6.81852159080296
8.29341804166324,2.38696411460638,5.58737942218781,2.88913264274597,6.72781494389424
8.30335004162043,2.24119156658649,5.43299714148045,2.1562275762856,6.26016892249783
8.31328204157762,2.3437911978364,4.96597885787487,1.33551077932119,5.65136198076169
8.32321404165123,2.2652677693963,4.3518674325943,0.617187645435333,4.94480624571061
8.33314604160842,1.82057707875967,3.31209683418274,-0.187500179260969,3.78413036983814
8.34307704167441,1.05763106480241,1.7588933390379,-0.998345560580492,2.28231967648656
8.35300904163159,-0.540056219771504,-0.349120874404907,-2.42091670319438,2.50487201055557
8.36294104158878,-2.2259296028316,-2.55809369802475,-5.54420241236687,6.49898348620233
8.37287229159847,-4.22569621324539,-5.36786500632763,-10.853556085825,12.824592115188
8.38280429167207,-6.70457651138306,-8.67710898399353,-10.6087951469421,15.25746050255
8.39273629162926,-8.16532090902328,-10.7439476895332,-3.65233695745468,13.9801445898656
8.40266829158645,-8.44904886245728,-10.8740903377533,-0.791455721855164,13.7934284901712
8.41260029166006,-7.78721597135067,-8.44853372275829,-2.878360902071,11.8449742984784
8.42253229161724,-5.43186044275761,-3.85536456406117,-5.1126743888855,8.39692700922064
8.43246429157443,-3.83211603462696,-0.760985881090164,-5.42180498600006,6.68282740464534
8.44239529164042,-3.16509373962879,0.64210263133049,-4.86133767127991,5.83632745174601
8.45232729159761,-2.58034118413925,1.28115301609039,-3.86688416361809,4.82206457982917
8.46225929167122,-1.71277430266142,1.6635568267107,-2.30843849346042,3.32113013982332
8.47219129162841,-0.795811532065272,1.94537098646164,-0.635310651808977,2.19576954479216
8.48212329158559,-0.0253480087593198,2.09675715386868,0.548847873955965,2.16754863211728
8.4920552916592,0.36423325907439,2.19902904868126,0.66884677246213,2.32717653584617
8.50198729161639,0.45878244381398,2.07779989600182,0.750190897732973,2.25621810151822
8.51191929157358,0.389883532337844,1.46239214301109,1.48865213468671,2.12289545829184
8.52185129164718,0.3781859581545,0.340974533557892,2.11228311941028,2.17279272550924
8.53178329160437,0.724825530052185,-1.34249674022198,2.58815657258034,3.0043674859632
8.54171429167036,1.65379811614752,-4.060196621418,3.05237170100212,5.342023756464
8.55164629162755,3.00092848241329,-7.91702240467072,3.35365533471108,9.10669092572343
8.56157829158474,3.74369356244802,-11.4387957143784,2.35983449578285,12.2649952194154
8.57151029165834,3.40602913767099,-12.2180751943588,0.286218940392137,12.687171364158
8.58144229161553,1.7759300789237,-7.49345711946488,-0.191310371160507,7.70340359221808
8.59137429157272,1.37499176412821,-1.2675348508358,0.343473633527756,1.90137347368488
8.60130629164632,2.09802102953196,2.27991182863712,-1.21618467606604,3.32848243994401
8.61123829160351,3.35525513291359,4.53241892695427,-3.83692420005798,6.82074377567043
8.62117029167712,5.84327521383762,6.08333557605743,-5.4943396961689,10.0667077861867
8.63110129162669,8.88639018774033,6.63153835594654,-4.29907526135445,11.8923201957376
8.64103329158388,10.3643663299084,6.30458193719387,-0.230195597782731,12.13345922796
8.65096529165749,10.0910557758808,5.78148827075958,2.862606164217,11.9770416776549
8.66089729161467,9.1669536280632,5.30414263486862,4.34013324022293,11.445685844587
8.67082929157186,8.08840195655823,4.80513306498528,5.00589955329895,10.6569498601048
8.68076129164547,6.74692321658134,4.29256497144699,5.08515622258186,9.47659752931405
8.69069329160266,5.3732713419199,3.38848602890968,5.04242360115051,8.11048199895996
8.70062529167626,4.25739776998758,1.95144390463829,4.736125395298,6.66066459483075
8.71055729163345,3.8016169577837,0.23028849542141,4.50438386678696,5.89871158001497
8.72048829158302,3.50268595129251,-1.47850005269051,5.09751372814179,6.35919943764793
8.73042029165663,2.88328805834055,-3.13903094530106,6.71677614212036,7.95499510033062
8.74035229161382,1.52062164008617,-3.97203230381012,6.38113076090813,7.66864789794247
8.75028429157101,-0.151474606543779,-3.92356765687466,4.719384816885,6.13921173802835
8.76021629164461,-1.67195269748569,-3.43870308637619,2.79727405428886,4.73759927322694
8.7701482916018,-2.69949194401503,-2.76282342910767,1.1573370552063,4.03235404144798
8.7800802916754,-3.37286343812943,-2.07168020009995,-0.0424718447495252,3.95851872312773
8.79001229163259,-4.09056179702282,-1.6318807053566,-1.07174777828157,4.53259018134545
8.79994429158978,-4.78934704452753,-1.36424721300602,-2.01938153386116,5.37372471851869
8.80987629166339,-5.3914170062542,-0.877497500181198,-2.98778160274029,6.22609171983714
8.81980729161296,-5.5716112357378,-0.291510597467422,-3.4812041580677,6.57621567322601
8.82973929157015,-5.14849092364311,0.136889165639877,-3.1459166264534,6.0351047095391
8.83967129164375,-4.17475059270859,0.624709503650665,-2.48907199501991,4.90043711026522
8.84960329160094,-3.0358264195919,1.05870622158051,-1.74082134962082,3.65616737647514
8.85953529167455,-1.96900397032499,1.28745280623436,-1.01220448493958,2.56106799651397
8.86946729163174,-1.0370174369216,1.34876963317394,-0.375485969781876,1.742289987733
8.87939929158893,-0.10282533377409,1.30725732564926,0.0546866691112518,1.31243491134147
8.88933129166253,0.571902129650116,1.20652734160423,0.0687761199474335,1.33697809503819
8.89926329161972,0.655211211740971,0.875108912587166,-0.275809069275856,1.12746972623453
8.90919429156929,0.692126145958901,0.906839997768402,-0.395348084270954,1.20735143649611
8.9191262916429,0.878490357398987,1.32227882266045,-0.340630132555962,1.62363649875962
8.92905829160009,0.928748345375061,1.71182968497276,-0.470726587772369,2.00362618265651
8.93899029167369,0.894220244586468,2.04285927414894,-0.85609186694026,2.38868104703116
8.94892229163088,0.706896212697029,2.25462905287743,-1.28128984093666,2.6878910093402
8.95885429158807,0.566170104146004,2.2784400844574,-1.65718058422208,2.87368844762503
8.96878629166167,0.448242874145508,2.15213671803474,-1.95306314483285,2.94059003858749
8.97871829161886,0.392055224776268,1.91126359283924,-2.11705810189247,2.87898781299534
8.98865029157605,0.384191596806049,1.51942588448524,-2.20534871935844,2.70551680376894
8.99858229164965,0.238290702402592,0.733784049153328,-2.29703174516559,2.42313357616575
9.00851329159923,0.0816338548064232,-0.522378551959991,-2.24124433770776,2.30276347441622
9.01844529167283,-0.0946789929270744,-1.94893603384495,-1.92860833480954,2.74350977487192
9.02837729163002,-0.452413985431194,-3.16464993596077,-1.35952339366078,3.47390147950416
9.03830929158721,-1.07781989246607,-3.94283247828484,-0.72884271338582,4.1519676507975
9.04824129166082,-2.03534735620022,-4.13696939349175,-0.342987291365862,4.62328832165129
9.058173291618,-3.09581008136272,-3.82159572422504,-0.261059613972902,4.92511787283613
9.06810529157519,-4.1650003606081,-3.57543905496597,-0.500614045858383,5.51195127541529
9.0780372916488,-5.16278619647026,-3.60993178009987,-0.952772361785173,6.37132199318325
9.08796929160599,-6.02706898927689,-3.86055689156055,-1.55246031403542,7.32390559340669
9.09790029167198,-6.54246128797531,-3.96924376666546,-2.2553226788342,7.97779268780106
9.10783229162917,-6.70744223177433,-3.83988289117813,-2.78692214369774,8.21592459468715
9.11776429158635,-6.70022384405136,-3.79808407008648,-3.20116287410259,8.34061663849693
9.12769629165996,-6.53659068346024,-4.23016114711762,-3.78565464377403,8.65750900522838
9.13762829161715,-6.26832920014858,-5.17529397547245,-4.89097720742226,9.48668945088437
9.14756029157434,-6.15974932909012,-6.09325420796871,-6.23393178462982,10.6739010739079
9.15749229164794,-6.41335768997669,-6.75866150200367,-7.55186378717423,11.993386044745
9.16742429160513,-6.740969581604,-7.50646834373474,-8.59807100057602,13.255736977873
9.17735629167873,-6.73386053681374,-7.97834040105343,-8.48622078180313,13.4541717114747
9.18728729162831,-6.01978511273861,-6.82117525398731,-6.82721133470535,11.3744036880132
9.1972192915855,-4.95900605320931,-4.44336524784565,-4.99117743372917,8.32148351776871
9.2071512916591,-3.64397865504026,-3.12431467294693,-3.05199397087097,5.68810951127115
9.21708329161629,-1.68238486111164,-3.72649836301804,-1.38364067316055,4.31644186603943
9.22701529157348,0.260534095466137,-5.64975459516048,0.22125622831285,5.66008474486068
9.23694729164708,1.93552193641663,-7.20435966789723,1.907394490242,7.69981799344502
9.24687929160427,3.66935118556023,-8.06753207445145,2.87835271596909,9.31848304461632
9.25681129167788,5.65394295573235,-8.65548013329506,3.43851597547531,10.8953108903849
9.26674329163507,7.70663724660874,-8.76963766336441,3.96837194681168,12.3307249708101
9.27667529159226,8.63237603008747,-8.16780246734619,4.71143728137016,12.7839178003732
9.28660629165825,8.13039841353893,-7.06039361715317,5.85633789360523,12.2576192597131
9.29653829161543,6.61714192628861,-5.29279377400875,6.65013659477234,10.7714692561397
9.30647029157262,4.90777859687805,-2.79026558160782,7.01253766536713,9.00264168342116
9.31640229164623,4.12976386964321,0.170304248929024,7.39020698547363,8.46753284282719
9.32633429160342,4.56100859552622,3.08044652223587,7.33509113073349,9.17036052077475
9.33626629167702,4.60481447339058,4.76440253019333,6.60174152970314,9.35343995699267
9.34619829163421,3.77123424053192,4.98344624519348,5.0118917798996,8.01099265940985
9.3561302915914,2.35154358252883,4.18025925457478,2.4536861076951,5.38747623392313
9.366062291665,1.00510508805513,3.17084155261517,-0.101342772245407,3.32787360747244
9.37599416659214,0.85907475091517,2.81823164463043,-2.16621710568666,3.65690245691977
9.38592616666574,1.23206213235855,2.90321156859398,-2.09329033970833,3.78529773681358
9.39585816662293,1.33587681502104,3.44070400357246,0.658716617524624,3.74925572444898
9.40579016658012,0.796494852304459,3.68738049030304,2.37709576874971,4.45889708603179
9.41572216665372,0.798722641468048,4.02991155266762,3.73962448507547,5.5554420408905
9.42565416661091,0.911324227452278,4.41785676956177,3.96345093011856,6.00474092358379
9.4355861665681,1.48784887343645,4.70215365707874,3.53298125267029,6.06678661374247
9.44551816664171,2.09604408591986,5.02819381713867,3.71739658713341,6.59508690305611
9.45545016659889,2.12803098678589,5.26384947180748,4.28874907851219,7.11547579582757
9.46538116666488,1.8561073923111,5.50927699327469,4.64124145746231,7.43897774609419
9.47531316662207,2.32783531576395,5.78314478695393,4.85528346419334,7.90173135470066
9.48524516657926,3.13865350753069,6.24589167952538,5.21519712924957,8.72127225865768
9.49517716665287,3.48720837146044,6.75532332658768,5.3391487455368,9.28986139830356
9.50510916661006,3.83379535496235,7.13854399323463,5.17418241977692,9.61399817350751
9.51504116668366,4.18270192891359,7.41618031740189,4.54080529600382,9.64954085242262
9.52497316664085,4.23301429599524,7.52114602446556,3.53331220507622,9.32578911888826
9.53490516659804,3.96479315847158,7.0175183236599,2.624090051651,8.4764967298725
9.54483716667164,3.53730819225311,5.81182362556458,1.63875966221094,6.99824094556205
9.55476816662122,3.04155172079802,4.38584092497826,0.374306147843599,5.35039648828169
9.5647001665784,2.05385437846184,2.8859236907959,-1.21048108264804,3.74327901825026
9.57463216665201,0.64824505828321,1.10061555504799,-3.53198722600937,3.75586341874882
9.5845641666092,-1.40803876519203,-1.70597311377525,-13.7645935678482,13.9411962728188
9.5944961666828,-5.36220314741135,-6.9235816347599,-22.9983153820038,24.6091794998818
9.60442816663999,-8.98954618155956,-11.4679943704605,-7.4539603471756,16.3672954481971
9.61436016659718,-11.7747252702713,-14.7080488300324,2.51302335977554,19.0075285606456
9.62429216667078,-13.1552330052853,-16.3810331225395,0.93794046074152,21.030409741443
9.63422416662797,-11.3284903299809,-13.3083493638039,-3.46722814321518,17.8176465040317
9.64415516657755,-6.67548076629639,-5.61653013110161,-5.28380484938622,10.1993160486948
9.65408716665115,-4.90900885105133,-0.332465665340424,-5.03924154639244,7.04292955248157
9.66401916660834,-4.23596246212721,2.64114988803864,-4.41639379620552,6.66510201533329
9.67395116668195,-2.91026915788651,4.19129996716976,-2.98259453773499,5.91037495956638
9.68388316663913,-1.09551502883434,4.67222760736942,-1.01498088911176,4.9051045043637
9.69381516659632,0.485261011719704,5.02092865169048,0.791279135942459,5.10600875888786
9.70374716666993,1.73124010205269,5.40165431141853,1.84277208611369,5.96413200326599
9.71367916662712,2.66127922028303,5.17373218417168,2.29820352718234,6.25552965416978
9.72361116658431,3.32505689531565,3.39071557223797,2.91867628455162,5.57419291941957
9.73354316665791,3.72673400580883,-0.171355578303337,4.25835408210754,5.66140341018635
9.74347416660748,3.91061256587505,-4.46103377938271,5.04912801861763,7.79021224162494
9.75340616668109,4.21482536226511,-8.98705643713474,5.95223983168602,11.5741563516547
9.76333816663828,4.48717901945114,-12.2230336332321,6.30357095360756,14.4662480802346
9.77327016659547,3.91509416431189,-13.2657512283325,4.5195658698678,14.5511028317275
9.78320216666907,0.415382106900215,-11.1735028624535,-2.86322947740555,11.5420011935657
9.79313416662626,-3.09609601020813,-5.46574447274208,-11.7245561599731,13.3013303956447
9.80306616658345,-0.539598894417286,1.12308698952198,-5.76602472424507,5.89911285478549
9.81299816665705,2.7656982126832,4.92379587471485,-3.45221951007843,6.6189630581583
9.82292916660663,5.68447828531265,5.70738241374493,-2.99267162919045,8.59322936229898
9.83286116668023,7.55133052110672,4.79717734336853,0.206969214677811,8.94865014170018
9.84279316663742,7.84296917259693,3.93365468859673,3.02701495796442,9.28162831658137
9.85272516659461,7.93813903927803,3.86646550297737,4.18113575220108,9.76962143949079
9.86265716666821,7.86002959370613,4.04390978693962,5.10166291236877,10.2058922221568
9.8725891666254,6.53157260298729,3.84895893931389,5.80412167310715,9.54797119711044
9.88252116658259,4.48356631726027,2.91932474076748,6.60795478105545,8.50234616160748
9.8924531666562,3.35658888280392,1.73051212370396,7.0664197576046,8.01221875195092
9.90238516661339,2.68654503911734,0.358379355669022,6.62166416287422,7.15488618327842
9.91231716657057,2.6147976565361,-1.03307904481888,6.12784224271774,6.74202266750169
9.92224816663656,1.84308418124914,-2.27258585214615,5.75190603733063,6.45337344470519
9.93218016659375,0.686042922064662,-2.85652798354626,5.68564305067062,6.39976123861953
9.94211216666736,-0.557972746342421,-2.66042932748795,5.13156791210175,5.807082488542
9.95204416662455,-2.20538672626019,-2.1027160513401,3.94969944834709,4.9885139207184
9.96197616658174,-3.45060626327991,-1.32371197521687,2.54199865221977,4.4856052128343
9.97190816665534,-3.46337073504925,-0.536025368571282,1.21302476763725,3.70859665251547
9.98184016661253,-2.87794107198715,0.104506115913391,0.016407305393368,2.87988464035699
9.99177216656972,-2.22045529335737,0.636827858090401,-0.968474328517914,2.50477822484088
10.0017041666433,-1.55518818631768,0.986581401228905,-2.04150505900383,2.74949014583633
10.0116351665929,-0.816906605064869,1.27582327902317,-3.30666710972786,3.63718418769961
10.0215671666665,-0.101285469532013,1.34960929334164,-4.36419570207596,4.56923495970942
10.0314991666237,0.460477588176727,1.43313150644302,-4.87113585054874,5.09841838205477
10.0414311665809,0.876186262071133,1.5810964679718,-4.67427471756935,5.01162773379898
10.0513631666545,1.00550035983324,1.57527030229568,-3.94907145738602,4.36894413725564
10.0612951666117,0.942480092793703,1.66337497830391,-2.94332463741302,3.50973574004689
10.0712271665689,0.739241547882557,1.7179347628355,-1.87075232863426,2.64527733717374
10.0811591666425,0.331302361786366,1.65236057817936,-0.896919026970863,1.90906272191063
10.0910911665997,-0.235663548409939,1.55425950229168,-0.165197875499725,1.58068031131623
10.1010221666656,-0.699140758216381,1.45173091471195,0.339483493566513,1.64668439323809
10.1109541666228,-0.99034554630518,1.31828985214233,0.550822917222977,1.73841258666808
10.12088616658,-1.17163408219814,1.19755303502083,0.483286553174257,1.74368161851151
10.1308181666536,-1.24930820256472,1.25942651689053,0.248187407255173,1.79123508383532
10.1407501666108,-1.15577204793692,1.4464690053463,-0.121342588663101,1.85547989319294
10.150682166568,-0.946140595972538,1.71430890440941,-0.553111955970526,2.03469159405601
10.1606141666416,-0.695820709168911,1.96444635808468,-0.912534016370773,2.27506797351953
10.1705461665988,-0.438261384665966,1.94076045691967,-1.28179606363177,2.36677530432745
10.1804781666724,-0.284579600393772,1.29346666753292,-1.75522143378854,2.19882783560007
10.190409166622,-0.127054441273212,0.0217674297094345,-2.21472136750817,2.21846960487194
10.2003411665792,0.0434834039211273,-1.41269782662392,-2.21529483318329,2.62776276587006
10.2102731666528,-0.0178220209479332,-2.67346160173416,-1.79014246746898,3.21750285380038
10.22020516661,-0.469539602994919,-3.53636211276054,-1.1494292807579,3.74800108095135
10.2301371666836,-1.19276621192694,-3.87286294162273,-0.525025001764298,4.08624642592524
10.2400691666408,-2.12505212277174,-3.77441395640373,0.0464958894252777,4.331767434492
10.2500011665979,-3.09899652153254,-3.76186933994293,0.46387818261981,4.89598032467289
10.2599331666715,-4.17457400679588,-4.03767431616783,0.600859880447388,5.83874255448795
10.2698651666287,-5.32968210339546,-4.41713288426399,0.33073006555438,6.93007623455629
10.2797961665783,-6.38064895033836,-4.6576627779007,-0.572401628047228,7.92048907605375
10.2897281666519,-7.16820691823959,-4.6635515087843,-1.79276611313224,8.73761485956995
10.2996601666091,-7.77703596889973,-4.5235416841507,-3.0897938811779,9.51270435039235
10.3095921666827,-8.30397651851177,-4.50368980228901,-4.30264674067497,10.3803668928549
10.3195241666399,-8.75656387388706,-4.63336350381374,-5.63137738108635,11.3955201480296
10.3294561665971,-9.03813478946686,-4.9002924066782,-7.42070196926594,12.6794149652177
10.3393881666707,-9.05078348636627,-5.37454369604588,-8.72974912762642,13.6751936545367
10.3493201666279,-8.71711621820927,-6.33076576888561,-9.20102710783482,14.167766592564
10.3592511665775,-7.28666215181351,-7.34608565032482,-8.29508173406124,13.2615534788099
10.3691831666511,-4.829143486619,-6.97536983907223,-6.12087353110313,10.461429347367
10.3791151666082,-2.83412846982479,-5.44998915016651,-5.13947919487953,8.0093016121884
10.3890471666818,-0.44013863325119,-4.4647841835022,-0.332375618219376,4.49872130425061
10.398979166639,1.67765241712332,-4.48453081548214,2.45907694816589,5.38261959501965
10.4089111665962,3.49045562267303,-5.35936257004738,4.32065031766892,7.71842385326481
10.4188431666698,4.61893111377955,-6.74732667446137,5.29715872049332,9.74273228595742
10.428775166627,6.19173125982285,-8.10140031695366,4.8934178352356,11.309985022077
10.4387071665842,8.38246310949326,-8.89815010786057,3.85951082468033,12.8194612573953
10.4486381666502,9.65823551774025,-8.96091002762318,2.80629426151514,13.4705125857003
10.4585701666074,8.64598367035389,-8.00867517113686,1.62353804424405,11.8965451878231
10.468502166681,4.91683710336685,-5.7843346953392,0.748296399861574,7.62848362853297
10.4784341666382,2.06442161276937,-3.30280911684036,0.448841775208712,3.92069427483521
10.4883661665954,3.45677566051483,-0.721525361537933,0.187699276953936,3.53625901667839
10.498298166669,4.0142579716444,1.32182390928268,0.736187985688448,4.28992520451511
10.5082301666262,4.712459667027,2.28342775940895,1.65042354181409,5.49046594681815
10.5181621665834,5.28650801718235,2.39376121044159,2.36731513112783,6.26749078008216
10.528094166657,5.31266378223896,2.41597068965435,2.63298483610153,6.40264945030751
10.5380251666065,4.4031934145093,2.53068428993225,2.78197422981262,5.79066972259941
10.5479571666801,2.27077818542719,2.51801863610744,2.99990697383881,4.52728321081011
10.5578891666373,-0.0626569722220302,2.93902693390846,3.13679467767477,4.29898663225372
10.5678211665945,-0.773155983388424,3.29084571361542,1.76874999046326,3.81522112258701
10.5777531666681,-0.123113984372467,3.7620482647419,1.07426653951407,3.91435981960207
10.5876851666253,0.141049459576607,4.32892471253872,1.8038072642684,4.69182318118477
10.5976171665825,0.575603124797344,4.90942985057831,2.14466251462698,5.38826481500974
10.6075491666561,0.880810240209103,5.22244884610176,2.19215243071318,5.73195698770398
10.6174811666133,1.23300558060408,5.47232492923737,2.18354796051979,6.0195119892599
10.6274121666793,2.04007424533367,5.7943404507637,2.15512362197042,6.51005698990455
10.6373441666365,2.85660955220461,5.97828391492367,2.36840081289411,7.03629299501514
10.6472761665937,3.23273403793573,5.95123644948006,3.04954632639885,7.42748392354376
10.6572081666673,3.44760137915611,5.8346646040678,3.35452189207077,7.56188359047552
10.6671401666245,3.6804813605547,5.67588463246822,3.30979303121567,7.53102511720438
10.6770721665816,3.97054506450892,5.71002477049828,3.21483541846275,7.66190431660449
10.6870041666552,4.23449071794748,5.91227177381516,3.15272015422583,7.92625469807125
10.6969361666124,4.3149755948782,6.1725500535965,3.08728542566299,8.13945451784453
10.7068681665696,4.46668745219708,6.58860985279083,3.14937847048044,8.5603540428088
10.7167991666356,4.38241416424513,6.96056468904018,3.20515593767166,8.82768595284638
10.7267311665928,3.87280914723873,6.99558658719063,2.80126536369324,8.47254212309652
10.7366631666664,3.11167240798473,6.28908798515797,1.23573199108243,7.1247572880384
10.7465951666236,2.49203624099493,5.08107018828392,-0.543877594470978,5.68536029838631
10.7565271665808,1.53554958164692,3.50178050994873,-2.180717908144,4.40180756649501
10.7664591666544,0.0597123509645462,1.70471011519432,-4.15548869490624,4.49195819606517
10.7763911666116,-1.83235103219748,-0.943415501117706,-9.85398743391037,10.0672047491152
10.7863231665688,-4.87037629723549,-5.31263630032539,-19.716446313858,20.9924492373676
10.7962551666424,-9.73653850615025,-10.6915449428558,-11.4944378185272,18.4724501924039
10.8061861665919,-14.2275433588028,-14.8525031232834,3.61706070542336,20.8830784895444
10.8161181666655,-13.465888556242,-16.9740752756596,3.93198823213577,22.0206702334543
10.8260501666227,-11.0123243629932,-15.0046219468117,-2.44496396228671,18.7719955364207
10.8359821665799,-7.49611234009266,-8.63925294041634,-6.31598225355148,13.065987272723
10.8459141666535,-5.27393591880798,-2.73026086986065,-5.41827092885971,8.03905369752632
10.8558461666107,-4.77178668648005,0.581772814393043,-4.14481518745422,6.3472750631264
10.8657781665679,-3.74867042005062,2.33880615413189,-3.47853665828705,5.62341190273436
10.8757101666415,-1.63135299414396,3.55621516406536,-2.11648975253105,4.44831515938336
10.8856411665911,0.590088432133198,4.48164872288704,-0.339461274147034,4.53305786304763
10.8955731666647,2.30368046790361,4.84455850124359,0.899776707440615,5.43932798178459
10.9055051666219,3.51336764484644,4.24152521073818,1.5235353076458,5.71449456687333
10.9154371665791,4.27423424273729,2.18271063923836,2.18820234417915,5.27461217489054
10.9253691666527,4.45966991633177,-1.80753281772137,4.16667675733566,6.36529856722335
10.9353011666099,4.18625645130873,-7.13471874475479,6.85335891366005,10.7423220507637
10.9452331666835,4.25489253044128,-11.8221532058716,9.16043515205383,15.5493083139955
10.9551651666407,4.64741260886192,-13.0120054578781,9.86156074762345,16.9753088446698
10.9650971665978,3.03391291826963,-9.28800385594368,8.04412800908089,12.6562094898175
10.9750281666638,-0.244948634505272,-2.7520347315073,1.27232372045517,3.04179266989079
10.984960166621,-1.63124686717987,1.71014100909233,-8.891244546175,9.1999879452394
10.9948921665782,0.447806379497051,4.76770620703697,-12.2763918149471,13.1773043155358
11.0048241666518,4.70047813743353,6.20512313783169,-9.78085046052933,12.5005233333402
11.014756166609,8.77092405080795,5.7562271296978,-2.37095473051071,10.755681559429
11.0246881666826,10.6031935143471,4.52853052854538,3.04507554531097,11.9250906297315
11.0346201666398,10.2647952640057,3.40267429769039,4.09297962069511,11.5627287594037
11.044552166597,9.25018640398979,3.17525444626808,4.16556110858917,10.6301499827845
11.0544841666706,8.22186757743359,3.30936618447304,4.46647753715515,9.92473841437137
11.0644151666202,6.82381000936031,3.01037232041359,4.69266070246696,8.81179828524439
11.0743471665774,4.93725908875465,1.86422975957394,4.89239340305328,7.19634581688588
11.084279166651,3.34693659156561,0.347805835604668,5.0963676738739,6.10703830956941
11.0942111666081,2.71302473992109,-0.946871205568314,5.26863834142685,6.00130138320943
11.1041431666818,2.6565906304121,-2.07450791358948,5.80070105195046,6.70888884654067
11.1140751666389,2.53220924377441,-2.63784738063812,5.83859919548035,6.88909014480575
11.1240071665961,1.75791349187493,-2.49851290941238,4.92875022053719,5.79874170315092
11.1339391666697,0.393058899343014,-2.18065358877182,3.8428345656395,4.43589031327983
11.1438711666269,-0.908585976362228,-1.81870977044106,2.79257874011993,3.45423359449093
11.1538021665765,-1.97290508642793,-1.36127507328987,1.81852382898331,3.00872950292871
11.1637341666501,-2.95775059551001,-0.990666850805283,0.771914327144623,3.213341115253
11.1736661666073,-3.78110112458467,-0.782362132072449,-0.432467086315155,3.88533705111698
11.1835981666809,-4.41023141562939,-0.590624914169312,-1.78897960245609,4.79577177799839
11.1935301666381,-4.64928693383932,-0.348271858692169,-3.02999849975109,5.56040045223541
11.2034621665953,-4.59638834327459,-0.0136076402664185,-3.70062384903431,5.90098193880524
11.2133941666689,-4.13721936196089,0.30741736292839,-3.61416048645973,5.50211282198945
11.2233261666261,-3.16542907744646,0.656820657849312,-2.98966148257256,4.40334309375264
11.2332571665756,-2.07428396522999,0.947496272921562,-2.26041311860085,3.21089872502284
11.2431891666492,-1.02600537568331,1.33610514879227,-1.67869936108589,2.37821267856145
11.2531211666064,-0.139642619490623,1.68777774810791,-1.39649285316467,2.195059470066
11.26305316668,0.415777086317539,2.02644438564777,-1.20365285038948,2.39335070933635
11.2729851666372,0.450064574182034,2.19478864789009,-1.09821059525013,2.49513964365935
11.2829171665944,0.165405159294605,2.23988646805286,-1.10650136232376,2.503756282331
11.292849166668,-0.0476322957873344,2.31800234556198,-1.0811321208626,2.55817324909665
11.3027811666252,-0.195484698414803,2.4605001604557,-1.02569985866547,2.67288898141753
11.3127131665824,-0.339149325191975,2.62326851785183,-1.00311893507838,2.82892339582455
11.3226441666484,-0.507481015920639,2.83922139465809,-1.08475322842598,3.08146145132219
11.3325761666056,-0.645705100893974,3.05055204749107,-1.20027666807175,3.34117747982502
11.3425081666792,-0.638699259459972,3.06111738145351,-1.49042120978236,3.46406289631708
11.3524401666364,-0.297058728039265,2.54993098497391,-1.90586705133319,3.19729903721747
11.3623721665936,0.274196991920471,1.06941715121269,-2.18013435602188,2.44373133629559
11.3723036666634,0.688718681037426,-1.08464213132858,-2.12097325131297,2.47978013288438
11.3822356666205,0.944664758741856,-2.97954813838005,-1.57354522749782,3.49944898495663
11.3921676665777,0.816686457395554,-4.13140986084938,-0.81461420416832,4.28941960055782
11.4020986666437,-0.0930540516972542,-4.41263111293316,-0.153108757138252,4.41626705339197
11.4120306666009,-1.58730971932411,-3.91255442619324,0.256547756195068,4.230065133564
11.4219626666745,-3.15236376643181,-3.63186702489853,0.443814923912287,4.82957835521329
11.4318946666317,-4.52250263392925,-3.88757044315338,0.47154695212841,5.98235660525502
11.4418266665889,-5.74279607534409,-4.40599218428135,0.109748729467392,7.23909653717613
11.4517586666625,-6.84347127199173,-4.98553136229515,-0.562300416827202,8.48556443460119
11.4616906666197,-7.78124070167542,-5.39383366048336,-1.17797319486737,9.54089981407411
11.4716226665769,-8.61954139173031,-5.75805847764015,-1.54174719169736,10.4799196389468
11.4815546666505,-9.31611142158508,-6.18929355561733,-2.53232852697372,11.4677798420409
11.4914856666001,-9.73352075815201,-6.84394723534584,-4.27490404129028,12.6434111169342
11.5014176666737,-9.82994836091995,-7.74121358692646,-5.90803371191025,13.8368759088833
11.5113496666309,-9.49922107279301,-8.91019888043404,-7.26567941844463,14.9136495362568
11.521281666588,-8.67280660271645,-9.68995549321175,-8.47193252563477,15.5205171481963
11.5312136666616,-7.07081686377525,-8.87893849611282,-8.8507689499855,14.3933356434438
11.5411456666188,-5.31989971160889,-6.51454024851322,-7.02996763050556,10.961797867003
11.551077666576,-4.22875167578459,-4.66272939026356,-5.75967815637589,8.53213212317484
11.5610096666496,-2.61857057243586,-4.3890200561285,-5.28161331295967,7.34954747474687
11.5709416666068,0.121930818557739,-5.22367032945156,-3.40113706469536,6.23452742139701
11.5808726666728,3.01010013252497,-5.94912443518639,-0.859755878448486,6.72249689651734
11.59080466663,5.25109844863415,-6.7281676876545,1.16108979821205,8.61338521546309
11.6007366665872,6.93379321217537,-7.26665765762329,2.43890639305115,10.3358631094055
11.6106686666608,8.56919511079788,-7.43384183228016,3.53829871058464,11.8832936090802
11.620600666618,9.80862590432167,-7.1403414273262,4.88543521642685,13.0790326509121
11.6305326665752,9.46900558590889,-6.51521501719952,5.82997806072235,12.8879299227929
11.6404646666488,7.96440590143204,-5.43531790137291,6.11228631019592,11.4164130088903
11.650396666606,7.12747053623199,-3.05922171413898,6.13610318899155,9.88996643508293
11.6603276666719,7.22374611139298,0.702031913995743,5.78934342026711,9.28395680342836
11.6702596666291,7.62698530554771,3.81345055282116,4.39265877842903,9.59211974036826
11.6801916665863,6.8808431661129,4.78380008339882,2.47363768458366,8.7378274936715
11.6901236666599,5.60357445538044,4.27684239327908,0.782420604228973,7.09250375649272
11.7000556666171,4.50082934439182,3.51954259693623,-0.530505304634571,5.73812519532578
11.7099876665743,3.50905503094196,3.01735857367516,-0.751002345085144,4.68848850853166
11.7199196666479,2.59823717236519,2.81590094447136,0.247437940388918,3.83944788573551
11.7298516666051,2.24692125320435,3.13246393740177,1.667754689008,4.20028464986984
11.7397826666711,1.41397895157337,3.59858935117722,2.85021591424942,4.80342716731911
11.7497146666283,0.5934836544469,3.96094013571739,3.51185730904341,5.32676368594611
11.7596466665855,-0.147521121315658,4.19434578180313,3.92963969796896,5.74946668608642
11.7695786666591,-1.19020016133785,4.4047344481945,3.4865493902564,5.74232432329081
11.7795106666163,-1.53446083009243,4.79653941214085,2.73738716393709,5.7318974918081
11.7894426665735,-0.945301812887192,5.33736066699028,2.63608649164438,6.02743447898131
11.7993746666471,0.45599657446146,5.9733283996582,3.10764075279236,6.74877885950486
11.8093066666042,2.25921619355679,6.15160064935684,3.8175114440918,7.58417048754632
11.8192386666778,3.36678028732538,6.18016722142696,4.50215636998415,8.35458487105804
11.8291696666274,3.88526196241379,6.46338705182076,4.97643426418304,9.03523827488565
11.8391016665846,4.17136768609285,6.81713950574398,5.11175988435745,9.48703265139744
11.8490336666582,4.28830439776182,7.15478638887405,4.85323313802481,9.65061628966269
11.8589656666154,4.19224019944668,7.51376683831215,4.30554315894842,9.62129263061589
11.8688976665726,3.93877977311611,7.83257106900215,3.31877640098333,9.37429637102444
11.8788296666462,3.6510681116581,7.58796917438507,1.85062475055456,8.6216231948949
11.8887616666034,3.4217619484663,6.64591958284378,0.26560421615839,7.47978927064389
11.898693666677,3.06920934319496,5.13357292234898,-1.78366272926331,6.24139965658288
11.9086246666266,1.652211766541,3.06046541690826,-4.70177768111229,5.84833015930134
11.9185566665838,-0.829505819901824,0.474146624207497,-9.0817643737793,9.13188584397249
11.9284886666574,-4.44122312039137,-3.39899990737438,-16.4515563905239,17.3761725027699
11.9384206666145,-8.86694994986057,-8.27573680579662,-13.7701987087727,18.3501769356928
11.9483526665717,-12.8495569431782,-12.1250459933281,-1.05107940584421,17.698379075319
11.9582846666453,-14.5382012486458,-14.9395284032822,6.41724550366402,21.811232067742
11.9682166666025,-13.2366320943832,-15.1607776880264,4.0371246778965,20.5269575186557
11.9781486666761,-9.10158877372742,-10.3122407412529,-2.93849717617035,14.0647073544371
11.9880806666333,-4.98653825283051,-3.15808819055557,-5.64495227694512,8.16728663481675
11.9980116665829,-3.3558117878437,1.10952320337296,-5.95312276124954,6.92330738193539
12.0079436666565,-2.13974880695343,3.0626873588562,-6.54604446172714,7.5371929065047
12.0178756666137,-0.0667304715514183,4.36344433486462,-6.4599523973465,7.79583763269082
12.0278076665709,2.28052257031202,5.2422510266304,-4.76541409850121,7.44252313063951
12.0377396666445,3.90770591497421,5.58591469466686,-2.34759978175163,7.20998149992772
12.0476716666017,5.22213718950748,5.16763353824616,-0.428195110559463,7.35924617500669
12.0576036666753,6.61906215190888,3.46343154609203,1.22533461838961,7.57025671772906
12.0675356666325,7.52196346521378,-0.472517005205154,3.33221242547035,8.24056104526129
12.077466666582,7.01412109136582,-6.1212290418148,7.18748518824577,11.7612619645152
12.0873986666556,6.05953682363033,-11.360664049387,11.7144276130199,17.4071964560825
12.0973306666128,4.66827547430992,-15.3390218710899,13.2506759369373,20.8004519338294
12.10726266657,0.61514111995697,-15.174099984169,5.71312964200974,16.2256451099311
12.1171946666436,-3.30750530809164,-6.96468171358109,-6.0513033592701,9.80125783154686
12.1271266666008,-1.90007962346077,1.75034821808338,-8.8717160153389,9.24020381359952
12.1370586666744,1.47245812475681,6.18816036522389,-6.46266316652298,9.06793674651643
12.1469906666316,4.36131068587303,6.97675212085247,-1.05571120463312,8.29521712808759
12.1569216665812,6.36663434386253,5.53667353749275,3.0704302418232,8.97865962152062
12.1668536666548,7.29568966805935,3.86296126663685,3.96365090489388,9.1575152730438
12.176785666612,7.45315927863121,2.84413714885712,4.1781373000145,9.00530569452964
12.1867176665692,7.52313875555992,2.51717663705349,4.56637370824814,9.15344546064024
12.1966496666428,6.97617266178131,1.96682559013367,4.95622745633125,8.78063656621098
12.2065816666,5.59964571118355,0.917679566144943,5.63687727212906,7.99828439466499
12.2165136666736,4.5718189278245,-0.113036034107208,5.95624049663544,7.50940119500756
12.2264456666308,4.11015113890171,-0.879769143462181,5.49627395510674,6.91927478280693
12.2363766665803,3.76346182912588,-1.40827850103378,4.89047200798988,6.32958211390721
12.2463086666539,3.71553775727749,-1.32232969343662,4.23194688677788,5.78473431510971
12.2562406666111,3.64187102615833,-0.781570419073105,3.50052101969719,5.11152856790251
12.2661726665683,2.7707642403245,-0.655959362983704,2.61314523339272,3.86470505629473
12.2761046666419,1.15740385964513,-0.877115092277527,1.90131338596344,2.39246884432509
12.2860366665991,-0.408180237561464,-0.93511187016964,1.37308761835098,1.71067674437243
12.2959686666727,-1.57134170427918,-0.754809467196465,0.953777936697006,1.98709447080566
12.3059006666299,-2.40065843984485,-0.467308305501938,0.382459943890572,2.47544210311414
12.3158316665795,-3.0147600710392,-0.250145055055618,-0.685167959332466,3.10174240822749
12.3257636666531,-3.46583855241537,-0.113475160002708,-1.94119958281517,3.97406206590538
12.3356956666103,-3.8919260340929,-0.0258300751447678,-2.97623627543449,4.89956506384437
12.3456276665675,-4.04780578672886,0.0654870611429215,-3.58563426017761,5.40793798873584
12.3555596666411,-3.7041000187397,0.190460770726204,-3.66160011649132,5.21190441845419
12.3654916665982,-3.00233239889145,0.567561156749725,-3.07949284136295,4.33813343041567
12.3754237083485,-2.22009758993983,1.05867289245129,-2.24048522293568,3.32707012794455
12.3853557083057,-1.67264135330915,1.51872421860695,-1.4593129992485,2.68958115303458
12.3952877082629,-1.38816963404417,1.93003198564053,-0.817917807921767,2.51416545577124
12.4052187083289,-1.3790853998065,2.23930408537388,-0.353574771657586,2.65355882653547
12.4151507082861,-1.43310753285885,2.4842854642868,-0.0764594344049692,2.86902727660666
12.4250827082433,-1.40876849770546,2.73830546915531,0.154389151185751,3.08330691507301
12.4350147083169,-1.31856613308191,3.02682112276554,0.285786758065224,3.31390054582446
12.4449467082741,-1.11737075150013,3.23873064994812,0.210185110196471,3.43250220681206
12.4548787083477,-0.975962565243244,3.3425672596693,-0.141375222578645,3.48500297958675
12.4648107083049,-0.800181521773338,3.25221432924271,-0.695878304243088,3.42073605024347
12.4747427082621,-0.424160239398479,2.98754888355732,-1.35129168346524,3.30625913293763
12.484673708328,0.077393454015255,2.30965427577496,-1.87040778145194,2.9730317672783
12.4946057082852,0.647289988696575,1.18643455445766,-2.14151700496674,2.53233219859474
12.5045377082424,1.0976861000061,-0.290951018929481,-1.95288933634758,2.25905821739565
12.514469708316,1.37729118168354,-1.72587118864059,-1.31485402822495,2.56990339788528
12.5244017082732,1.40132353037596,-2.66720391154289,-0.508032408356667,3.0554510747966
12.5343337083468,0.842054602503777,-3.05916324198246,0.224366873949766,3.18086091943996
12.544265708304,-0.284573460817337,-3.08047985136509,0.659450150728226,3.16310174837347
12.5541977082612,-1.7263825276494,-3.10024168610573,0.722601249217987,3.6213323113755
12.5641287083272,-3.22325131595135,-3.46357948064804,0.861338719725609,4.80912011231231
12.5740607082844,-4.51785351276398,-4.15991152882576,0.956488705873489,6.21536281603213
12.5839927082416,-5.66253017663956,-5.01104568779469,0.701626263409853,7.59388611318512
12.5939247083152,-6.83821930289269,-5.75442150950432,-0.0762378980219364,8.93758481697348
12.6038567082724,-8.03605768203735,-6.24952396988869,-0.951031060963869,10.22444291872
12.613788708346,-9.10505968093872,-6.60988143861294,-1.83460323348641,11.3999304142742
12.6237207083032,-9.93541342020035,-7.05642569661141,-3.32378483355045,12.6314341648854
12.6336527082603,-10.3883118474484,-7.54170892775059,-5.06307889044285,13.7996074017197
12.6435837083263,-10.4308152580261,-7.95320848345757,-6.64642829060555,14.7047761339836
12.6535157082835,-10.1255403149128,-8.43244452416897,-7.69028024554253,15.2569032761269
12.6634477082407,-9.3851015496254,-8.67366848230362,-7.8385767441988,14.9918625064527
12.6733797083143,-8.15330780446529,-7.89538478314877,-6.83319011271,13.2478683622977
12.6833117082715,-6.86642510175705,-6.07453610122204,-6.03824945032597,10.9776244674087
12.6932437083451,-5.71025164246559,-4.47934024214745,-7.63509539365769,10.5340469191786
12.7031757083023,-3.53147150158882,-3.96325212478638,-7.88160348057747,9.50254343827002
12.7131077082595,-0.441416249871254,-4.51112570643425,-5.34413875937462,7.00749045838469
12.7230387083255,2.53501210659742,-5.83281103670597,-1.65934039950371,6.57277578591721
12.7329707082827,4.77890976458788,-7.33141732513905,1.56753443598747,8.89071553596385
12.7429027082399,6.80337691426277,-8.33804064273834,3.42259049892426,11.2926075341706
12.7528347083135,8.86346442461014,-9.08037858366966,4.62688303470612,13.5063808418816
12.7627667082706,10.5394822525978,-8.97428436398506,5.78869204044342,15.0042467834138
12.7726987083443,10.3618485188484,-7.78623948633671,6.57291124820709,14.5326044583536
12.7826307083014,8.18509560763836,-6.52973716199398,6.70476830005646,12.4333091117509
12.7925627082586,6.59575807392597,-4.49398927152157,7.25348037242889,10.784847780823
12.8024937083246,6.97728363275528,-0.412995858192444,7.38027490496636,10.1647188915225
12.8124257082818,8.38205029606819,3.73672806680202,5.93007888436317,10.9264696670889
12.822357708239,8.38452074468136,5.51913013637066,3.62903901904821,10.6738423157718
12.8322897083126,6.84940853476524,5.24661480367184,0.780754147768021,8.66319463093612
12.8422217082698,5.0593226391077,4.22801931202412,-1.84269884973764,6.84605228728653
12.8521537083434,3.55634117156267,3.62652091562748,-2.9668058860302,5.88227452992622
12.8620857083006,2.60362245798111,3.23250219583511,-1.97927343517542,4.59841751920957
12.8720177082578,2.24692826986313,3.23472589194775,0.601650862544775,3.98423418066109
12.8819487083238,1.90825753927231,3.48784191727638,3.23288811206818,5.12426127566223
12.891880708281,1.29879698932171,3.76956544518471,4.7207425403595,6.17915102561521
12.9018127082381,0.158024474792182,4.14232485830784,5.02797863960266,6.51647114370109
12.9117447083117,-0.886713077500463,4.47719372928143,4.63699930250645,6.50640348447378
12.9216767082689,-1.66538145035505,4.6628919428587,4.53187747478485,6.71222542026306
12.9316087083425,-2.25353211522102,4.92868473172188,3.11120287656784,6.24899380046139
12.9415407082997,-1.50126618683338,5.56250068902969,2.09153982952237,6.12941701450175
12.9514717082493,0.198847980313003,6.37043503403664,2.40287146478891,6.81144436360253
12.9614037083229,1.92008441001177,6.79341676712036,3.53869018167257,7.89680718488353
12.9713357082801,2.60230537265539,6.72742918431759,4.54190194129944,8.52403483844
12.9812677082373,3.0912577316165,6.71779823541641,4.97767738223076,8.91414379604762
12.9911997083109,3.59643143624067,6.99000483512879,5.15760907173157,9.40188374781946
13.0011317082681,3.63875709146261,7.32327507734299,4.87872115105391,9.52222826332383
13.0110637083417,3.30701677322388,7.35366071820259,3.90856428623199,8.96044422316372
13.0209957082989,2.98153794586658,6.93900542020798,2.54607591569424,7.97006068438605
13.0309267082484,2.91034224808216,6.29544741690159,1.65193782448769,7.1296317405542
13.040858708322,2.83571218818426,5.20831963419914,0.714667747020721,5.9731572066063
13.0507907082792,2.17073758810759,3.54745194196701,-1.01703209236264,4.28145667196156
13.0607227082364,0.830597056522965,1.58393236756325,-3.65227965474129,4.06667922164464
13.07065470831,-0.952926582098007,-0.858182977437973,-10.164059432745,10.2446401228157
13.0805867082672,-4.57336083859205,-5.38860508024693,-21.5739383268356,22.7021476737541
13.0905187083408,-9.15557319223881,-10.4189956963062,-10.8156345534325,17.588574205759
13.100450708298,-11.8041624927521,-13.4143851113319,4.1940838265419,18.3541362971533
13.1103817082476,-12.3975051927567,-15.3672054505348,3.4942972433567,20.0514152016337
13.1203137083212,-11.5478591501713,-13.7337764024735,-3.14206798911095,18.2165379936344
13.1302457082784,-7.7710753172636,-6.71687671422958,-6.58497054576874,12.2011426296632
13.1401777082356,-4.9846724063158,-0.866340427994728,-6.07538920998573,7.90619116820959
13.1501097083092,-3.70564309895039,1.92500864267349,-5.19469211339951,6.6650037662541
13.1600417082664,-1.98960488051176,3.01754334568977,-3.86769458770752,5.29369028631775
13.16997370834,0.311741671264172,3.40831627607346,-1.81161008119583,3.8724325421678
13.1799057082972,1.81634106338024,3.82464504718781,-0.0321995933353901,4.23415179337142
13.1898367082467,2.31005978018045,4.55654219985008,1.16485306620598,5.23978393379646
13.1997687083203,2.39745431184769,5.33644206941128,1.77068761155009,6.11234290229831
13.2097007082775,2.20040752977133,5.40867155492306,2.68689967274666,6.42767073966256
13.2196327082347,1.52798357695341,4.37784076452255,4.22126519322395,6.27051061736433
13.2295647083083,1.34340510517359,2.55423570513725,5.00380508065224,5.77641087520318
13.2394967082655,1.6688263374567,-0.0684422439336777,4.83554443359375,5.1158729122803
13.2494287083391,2.43615001559258,-4.01058065772057,4.02445259213448,6.18189313858562
13.2593607082963,4.0293701004982,-10.1721648430824,2.91045276045799,11.3216384093685
13.2692917082459,5.62507466733456,-19.1620460700989,-2.20913186788559,20.0924298733475
13.2792237083195,2.94318021118641,-25.0660405254364,-10.870843963623,27.4798825663389
13.2891557082767,-0.436414541602135,-12.2749510610104,-2.37526062011719,12.5102655533686
13.2990877083503,0.0967773028090596,-0.0100776761770248,-0.140834830217063,0.171177846984925
13.3090197083075,1.16611781895161,5.44356656849384,-5.21639931678772,7.62909362804545
13.3189517082646,3.19049024373293,8.23602427124977,-6.04720913887024,10.7042076848876
13.3288837083383,5.38043476581574,8.84639640212059,-0.405153499469161,10.3620440517681
13.3388157082954,6.13779712736607,8.07781381845474,3.48313841700554,10.7264105316896
13.348746708245,6.93624436497688,7.25090525865555,4.47947472810745,10.9887582010173
13.3586787083186,7.98406482517719,6.1060800755024,5.44159430265427,11.4298054915978
13.3686107082758,7.98651071548462,4.27705523192883,6.80915513277054,11.3332320406694
13.3785430416465,7.36032478988171,2.12158560097218,7.56182861208916,10.7636777373447
13.3884750416037,6.44850004076958,0.152873699069023,7.47893497467041,9.87628429618248
13.3984070416773,5.84621811747551,-1.6874818789959,7.05815998077393,9.31898512088291
13.4083390416345,5.62331874847412,-3.04740507602692,6.45710831165314,9.08859940765106
13.418270041584,5.19091364264488,-3.71069041550159,6.42828387737274,9.05746329902487
13.4282020416576,4.71694038838148,-3.43597886860371,7.29647377967835,9.34312619151477
13.4381340416148,3.93386928141117,-2.17983848690987,6.382034740448,7.80752142363561
13.448066041572,2.19188009664416,-1.38914875030518,4.33702602982521,5.05409412179084
13.4579980416456,0.283350369483232,-1.24688950181007,2.58024996757507,2.87970671367444
13.4679300416028,-1.02386690273881,-1.02657518684864,1.04171187400818,1.7853077261993
13.4778620416764,-1.82410104945302,-0.518084941506386,-0.242393949441612,1.9116776590098
13.4877940416336,-2.2872075457871,-0.0132071059942245,-1.33910827875137,2.65041577254865
13.4977250415832,-2.68592055648565,0.0597562050819397,-2.63729014098644,3.76470972686372
13.5076570416568,-3.36114854156971,-0.260388207435608,-4.65501749753952,5.74754812415406
13.517589041614,-4.2821048873663,-0.48112586081028,-6.02537271201611,7.407632596117
13.5275210415712,-4.35481764525175,-0.121660677194595,-5.61966891646385,7.11054968159575
13.5374530416448,-3.5325973829627,0.624375042915344,-4.15488994002342,5.48928036067009
13.547385041602,-2.26905998110771,1.39886097550392,-2.56358247935772,3.69829695334517
13.5573170416756,-1.14944009810686,2.056324827075,-1.32197476744652,2.70135181332351
13.5672490416328,-0.485499578118324,2.3923292273283,-0.57582444190979,2.50809145769906
13.5771800415823,-0.490069469511509,2.40269751012325,-0.32114662528038,2.47310706703708
13.5871120416559,-0.756832019090652,2.35335928916931,-0.445184195637703,2.51182873960107
13.5970440416131,-0.940029378533363,2.43970687687397,-0.714539108276367,2.71042266350257
13.6069760415703,-0.952147440612316,2.66170635938644,-1.18078380525112,3.06357893435213
13.6169080416439,-0.881819469630718,2.74308381378651,-1.70775373712182,3.34940848705124
13.6268400416011,-0.636845984458923,2.65054987192154,-1.90798871353269,3.32737259146505
13.6367720416747,-0.203951466679573,2.36727390825748,-1.82898829847574,2.99846296516042
13.6467030416243,0.159100399017334,1.92865145802498,-1.51789522960782,2.45947460071771
13.6566350415815,0.351340769827366,1.28186520695686,-1.15866305753589,1.7632693572588
13.6665670416551,0.333961383104324,0.463311733603477,-0.824754445552826,1.00319881546918
13.6764990416123,0.140930176377296,-0.306806913614273,-0.470835345983505,0.57937701014336
13.6864310415695,-0.187955823540688,-0.984478157758713,-0.117447758316994,1.0091177387404
13.6963630416431,-0.755413484573364,-1.66039991497993,-0.0791262763738632,1.8258801652774
13.7062950416002,-1.58651800632477,-2.23911171197891,-0.407821072340012,2.77434292583999
13.7162270416738,-2.49378280431032,-2.75346262156963,-0.773273366242647,3.79453037705527
13.7261580416234,-3.64251655876637,-3.31115894079208,-0.946674739122391,5.01277303234118
