Time (s),Linear Acceleration x (m/s^2),Linear Acceleration y (m/s^2),Linear Acceleration z (m/s^2),Absolute acceleration (m/s^2)
0.021941208280623,-1.26938490986824,0.0897226005792618,1.43440795361996,1.91752819323839
0.0318722083466128,-0.817945947647095,0.0269691127538681,1.34952100038528,1.57828065843687
0.0418042083038017,-0.133561515212059,0.0736854422092438,1.17358880639076,1.18346056513304
0.051736208377406,0.609479845762253,0.235898021757603,1.22119157373905,1.38507126850238
0.0616672083269805,0.865012232959271,0.559886393845081,1.8770626437664,2.14128071625496
0.0715992082841694,0.332994253635407,0.757719626426697,3.19789778888226,3.30326724219589
0.0815305833239108,-0.591647299826145,0.580825565457344,4.40161203503609,4.47901700955187
0.0914615833899006,-1.53379307806492,-0.0280248275399208,4.72542557537556,4.96819418558614
0.10139358334709,-2.16510350346565,-0.939074528217316,4.36621357619763,4.96320009099354
0.111324583296664,-2.68997384637594,-1.66082149922848,3.89695697844028,5.01802361874678
0.121256583370268,-3.03110742419958,-1.86989278793335,3.56777627885342,5.04114459536246
0.131187583319843,-2.92003722399473,-1.70218119442463,3.38312880992889,4.78221692865753
0.141119583277032,-2.34696652829647,-1.33745322436094,3.22019205272198,4.20317378521413
0.151051583350636,-1.28951570391655,-0.847362704873085,2.80745405673981,3.2035406326379
0.160982583300211,-0.174520091414452,-0.292528305351734,2.02806464910507,2.05647180692781
0.170914583373815,0.728383268415928,0.237597514986992,1.19124213516712,1.4163518593322
0.180845583323389,1.42487962335348,0.566013106405735,0.60457695543766,1.64807951043549
0.190777583280578,1.91780896604061,0.584201163053513,0.522450472712517,2.07177139800133
0.200709583354183,2.26898192077875,0.377128745019436,0.892200323939323,2.46708866179921
0.210640583303757,2.47498488306999,0.0410752281546593,1.41075070381165,2.8491147562178
0.220572583377361,2.54403669923544,-0.300517356097698,1.6711886125803,3.05864427274418
0.230503583326936,2.49675143569708,-0.597068545818329,1.58686299204826,3.01801138758511
0.240435583284125,2.34579211503267,-0.745755053758621,1.18277185857296,2.73090470661063
0.250367583357729,2.11253586530685,-0.699540123045445,0.483738396763802,2.27731574500811
0.260298583307303,1.86538633882999,-0.474514998793602,-0.392106095552444,1.96432631386515
0.270230583380908,1.59864951699972,-0.17805064022541,-1.25258644402027,2.03871408207023
0.280161583330482,1.3018357872963,0.0526284492015839,-2.0861099588871,2.45955299420823
0.290093583287671,1.19655052989721,0.258133228719234,-2.76991317808628,3.02833038958803
0.300025583361275,1.08364371925592,0.349999710917473,-3.07768254339695,3.28160225284166
0.30995658331085,1.00551263898611,0.360262451469898,-2.87604949772358,3.06798067374225
0.319888583384454,0.972820271551609,0.334703979492187,-2.47495330810547,2.68026116487402
0.329819583334029,0.897793185710907,0.399888739585876,-2.10695352852345,2.32490790779203
0.339751583291218,0.822269671261311,0.616113511919975,-1.83025568246841,2.09894238488208
0.349683583364822,0.867779720127583,0.726178429573774,-1.38410961985588,1.78777408920158
0.359614583314396,1.00197331935167,0.791343162953854,-0.909944284558296,1.56785622275983
0.369546583388001,1.26825318127871,0.872959914654493,-0.621211114525795,1.66024949728272
0.37947858334519,1.66051481276751,0.83969671279192,-0.54065811753273,1.93770772123865
0.389409583294764,2.34068164855242,0.649650217294693,-1.04420395731926,2.64408734522563
0.399341583368368,2.1608022916317,0.735151420533657,-1.15055896282196,2.5560320971309
0.409272583317943,0.821832299530506,0.963492646962404,-1.40532975018024,1.891739441901
0.419204583275132,-0.719243777990341,0.463691364079714,-1.38534981429577,1.62834744488676
0.429136583348736,-1.60126643836498,-1.07841411575675,-1.86370701849461,2.68336264088243
0.439067583298311,-0.511326144933701,-1.91839836537838,-3.05130692303181,3.64035446808701
0.448999583371915,0.757322308123112,-2.06323565125465,-2.89529326915741,3.63499677378362
0.458930583321489,1.52325639545918,-1.79900977000594,-1.76950194239616,2.94752155599037
0.468862583278678,2.253932941854,-1.40518766283989,-0.630658460855484,2.72992603717036
0.478794583352283,2.41616481721401,-0.946885531246662,0.260393469929695,2.60811222772509
0.488725583301857,2.13272103846073,-0.581784289553761,0.7873919069767,2.34669086217955
0.498657583375461,1.71006060987711,-0.23237931355834,0.507101531624794,1.79873827951688
0.508588583325036,1.11741519033909,0.111033362746239,0.0261668747663498,1.12322296120508
0.518520583282225,0.387945947796106,0.153857054561377,-0.469026217460632,0.627821347450969
0.528452583355829,-0.39209776327014,-0.148978868722916,-1.04861685097218,1.12939481999441
0.538383583305404,-0.799396240711212,-0.387907429262996,-1.2237666875124,1.51231988309541
0.548315583379008,-0.942913371473551,-0.475558726787567,-0.901161766648293,1.38828464602764
0.558246583328582,-0.768329983949661,-0.560875158011913,-0.402983086109161,1.03310564551794
0.568178583285771,-0.306954994350672,-0.49289535574615,0.211031275391579,0.617819876231205
0.578110583359376,-1.24377878308296,0.648540123403072,3.8266506421566,4.07564045151539
0.58804158330895,-3.82415768176317,4.68878546029329,-0.732905797362328,6.09475528429595
0.597973583382554,-0.830592013299465,8.22992737948895,-3.36030771195889,8.92822802594496
0.607904583332129,3.96243468403816,7.45340252280235,-2.17515252828598,8.71695969438278
0.617836583289318,7.00963159918785,6.15343667507172,-0.852397742271423,9.36623189876697
0.627768583362922,6.97299353063107,5.33573280215263,1.52072688996792,8.91096479557976
0.637699583312497,5.61428538501263,4.5716321092844,3.73423013627529,8.14644064838584
0.647631583386101,5.34709335744381,4.36483626455069,4.46802178680897,8.22231242880956
0.657562583335675,6.27788530468941,4.59268325507641,3.76636175572872,8.642341364197
0.667494583292864,7.38299795329571,4.71579755008221,3.48491129279137,9.42825604395398
0.677426583366469,8.32367578804493,3.7536189186573,4.20903749585152,10.0543140120284
0.687357583316043,9.51677499890327,2.31548190325499,3.7620617133379,10.4920718239542
0.697289583389647,9.83721644997597,1.07842084005475,3.12499236524105,10.3778319640837
0.707220583339222,9.65380566716194,-0.233345017768443,2.39237834393978,9.9485621019923
0.717152583296411,8.95806184887886,-1.76913005948067,1.35849296808243,9.23158688417254
0.727084583370015,7.3263588988781,-2.94241071760654,0.606874911189079,7.91843499083543
0.73701558331959,5.31456412732601,-3.51666108906269,-0.498053550124168,6.3921478720051
0.746947583276778,4.15218238681555,-3.39998662501574,-1.54499049603939,5.58457905813135
0.756878583342768,4.04131976276636,-3.27486848920584,-1.88484061002731,5.53259913347492
0.766810583299957,4.09018377453089,-3.88374519467354,-2.45895708024502,6.1530114553016
0.776742583373562,4.21639212369919,-5.08338860929012,-3.017818749547,7.26126933111357
0.786673583323136,3.93489488303661,-6.35494342088699,-3.22235669195652,8.13955074149794
0.796605583280325,3.26836199998856,-7.45208280622959,-3.53245734214783,8.87096292337906
0.806537583353929,2.18613330692053,-8.32588778972626,-3.99499490439892,9.48997210791019
0.816468583303504,0.692305947840214,-8.9996741437912,-4.15405846595764,9.93627817436857
0.826400583377108,-0.781696426570415,-9.89042494297028,-3.8887966042757,10.6561857099653
0.836331583326682,-2.09139847308397,-10.9439154481888,-3.87731851994991,11.7973230783712
0.846263583283871,-3.05152268528938,-11.9293888020515,-3.84673816680908,12.9003683053366
0.856195583357476,-3.83589275121689,-13.0228894650936,-3.93997143566608,14.1362335200275
0.86612658330705,-4.45635717630386,-13.928976341486,-3.94936966538429,15.1483669733186
0.876058583380654,-4.79382922768593,-14.6652168059349,-3.89312529802322,15.9124418998279
0.885989583330229,-4.91785978138447,-15.2950157260895,-3.72827416241169,16.4931161131179
0.895921583287418,-4.80414254665375,-15.6808840119839,-3.26250893712044,16.721658816357
0.905853583361022,-4.32023575007916,-15.7041804885864,-2.42599018603563,16.4672751278741
0.915784583310597,-3.30617711305618,-15.4557428205013,-1.2574130281806,15.8553423412998
0.925716583384201,-1.67105120301247,-15.0067643666267,0.16143811583519,15.1003791721861
0.935647583333775,0.179623541235924,-14.3496916937828,1.83439185664058,14.4675813392182
0.945579583290964,2.29386620879173,-13.5061244165897,3.6970435988903,14.1896212180711
0.955511583364569,4.11466869771481,-12.4361354076862,5.39304604053497,14.1659065352554
0.965442583314143,5.61392168819904,-11.2276024711132,6.63110624670982,14.1967159591834
0.975374583387747,7.36479615569115,-9.75237744390965,7.75761502683163,14.4751400382823
0.985305583337322,9.20240938961506,-7.97263293385506,8.82937632679939,15.0401163822728
0.995237583294511,10.8594454014301,-6.30776925444603,9.44363802552223,15.712982102423
1.00516958336812,12.5853575205803,-4.74363935977221,9.49398489117622,16.4629610766195
1.01510058331769,13.6439561533928,-2.87537999153137,9.9087384223938,17.1058015519539
1.02503258327488,14.0415551233292,-1.12177487432957,10.9954761958122,17.8696431392135
1.03496358334087,14.0290257096291,0.373116714544594,12.252328183651,18.6298771966965
1.04489558329806,13.5173499011993,1.69214576438069,13.0418098855019,18.8592393995341
1.05482758337166,12.607015607357,2.5153207308054,13.167822060585,18.4025872833738
1.06475858332124,11.2715197384357,2.97954872310162,12.60205950737,17.1678994531823
1.07469020830467,9.91759812355042,3.57415003627539,11.7561521744728,15.7905166150896
1.08462220837828,8.85574025273323,4.5082713881135,10.871757298708,14.7290105945638
1.09455320832785,7.96560516536236,5.18877239227295,10.0071634340286,13.8028093004512
1.10448520828504,7.56192859947682,5.82590196669102,9.47083751857281,13.4469573202374
1.11441620835103,7.78562318980694,6.34141062498093,8.96200170278549,13.4590821265423
1.12434820830822,7.93845595836639,6.83839179575443,8.64725310087204,13.5852004602695
1.13428020838182,7.63924691677094,7.5900987303257,7.81654268145561,13.3066160868383
1.1442112083314,7.56142690837383,8.65303365826607,7.05523403406143,13.4843055311404
1.15414320828859,7.41922262370586,9.66727882146835,6.3856319475174,13.7578137624142
1.16407420835458,7.54579086899757,10.4805364716053,5.58047736883164,14.0684872049321
1.17400620831177,7.79410983860493,11.1401760721207,4.91029757738113,14.4555419612176
1.18393820838537,8.0623508566618,11.5929832828045,3.80561879217625,14.6246879324882
1.19386920833495,8.08446268737316,11.8316280341148,2.76918578445911,14.5950110924943
1.20380120829213,7.89768741667271,12.0963735866547,1.91738431200385,14.5729915624523
1.21373220835812,7.80510494291782,12.4940017926693,1.33091048240662,14.7915876996813
1.22366420831531,7.69418326199055,13.0415923690796,1.2315885078907,15.1921163056073
1.23359620838892,7.91990098893642,13.4805732536316,1.38203897461295,15.6958822195005
1.24352720833849,8.56601773381233,13.7013851666451,1.8341239079833,16.2624913777251
1.25345920829568,9.23732545316219,13.7893647122383,2.22294269889593,16.7456333095328
1.26339120836928,9.78513880848885,13.3145380568504,1.96069010674954,16.6394161815677
1.27332220831886,9.55409602224827,12.2424744558334,0.947985684871674,15.5582006820453
1.28325420827605,8.75092423439026,11.0629495561123,-0.521400312781334,14.1152182456841
1.29318520834204,8.08650687396526,9.8766617667675,-2.09188349962234,12.9350692945112
1.30311720829923,8.17126752734184,8.96442303478718,-2.82635284245014,12.4546683512665
1.31304920837283,8.93144123017788,7.82804824769497,-2.55844423860312,12.1488525687986
1.32298020832241,10.9215416622162,5.12284737467766,-2.7435246938467,12.3713606870672
1.33291220827959,9.54509949624539,2.94198796391487,-6.28094398319721,11.7989183781017
1.34284320834558,5.17317611396313,1.85239090204239,-9.08118959248066,10.61419368462
1.35277520830277,2.0496016985178,-0.523362930715084,-8.69054705500603,8.94429337595138
1.36270720837638,-0.00078001856803894,-2.47261471420527,-8.72250091910362,9.06619249834774
1.37263820832595,-0.897496731877327,-2.8123569470644,-9.69816381454468,10.1375161334114
1.38257020828314,-0.746136292219162,-3.22486163914204,-8.76105862855911,9.36550053393979
1.39250120834913,-0.182749462723732,-3.41490667283535,-7.22274916112423,7.99143856854459
1.40243320830632,1.44076855480671,-2.29221612453461,-6.34813550770283,6.90136893770024
1.41236520837992,3.6803030204773,-2.32422261357307,-4.51488429665566,6.27142896732209
1.4222962083295,5.75260945737362,-1.60505309522152,-2.08360150337219,6.3253542377008
1.43222820828669,6.80562575340271,-0.96423334300518,-1.51284484326839,7.03810964357227
1.44216020836029,6.17187236130238,-1.60599040389061,-1.91652082443237,6.65914902161529
1.45209120830987,4.19159057378769,-2.70830399036407,-2.11819012284279,5.42135328483549
1.46202320838347,2.33136966526508,-4.69223736405373,-0.258513590097427,5.24587507218816
1.47195420833305,0.948716586828232,-4.90050963073969,-0.138302437663078,4.99341419945902
1.48188620829023,0.421396552920341,-3.17510709643364,-2.56898939967155,4.1059209276679
1.49181820836384,0.234921829104423,-1.86302435606718,-3.78573708951473,4.22585533685392
1.50174920831341,0.800067501068115,-1.14104905128479,-3.07042673349381,3.37188690045451
1.51168120838702,1.54453382849693,-1.24218015432358,-1.60124188005924,2.54805255864599
1.52161220833659,1.23144817471504,-1.78902638018131,-0.0459053206443787,2.17236905116445
1.53154420829378,1.07760266840458,-2.30165703892708,1.60693648338318,3.00684178124209
1.54147620836739,-0.0529249030351639,-2.06767310321331,0.14341699719429,2.0733165561962
1.55140720831696,-0.370019407868385,-2.84223475724459,0.196688640117645,2.87296000644628
1.56133920839056,-1.09073200643063,-1.49170481979847,-5.63310406386852,5.92846868707546
1.57127020834014,-1.0854712665081,0.310091294646263,-7.99372150182724,8.07304081063667
1.58120220829733,-0.548833694458008,-0.000505199432373047,-5.54741896569729,5.57450229710033
1.59113420837093,1.38521825194359,0.944879351556301,-6.24707515597344,6.4681971675959
1.60106520832051,1.12351032793522,1.1466313880682,-4.80371219158173,5.06484844952257
1.6109972082777,0.878065849542618,0.244166861772537,-2.08543285131454,2.27588384366662
1.6209292083513,0.496597008705139,-1.01146773576736,2.61091101229191,2.84368280292659
1.63086020830087,-0.469330272674561,-1.70581348478794,3.80209116697311,4.19356266099699
1.64079220837448,-1.66832289218903,-1.05114869534969,1.2246700823307,2.32121340313492
1.65072320832405,-2.4118595123291,-0.657973144054413,0.807825586795807,2.6272756125293
1.66065520828124,-1.87240475177765,-0.165407790541649,-0.980292136073112,2.1199603684263
1.67058720835485,-2.09253429472446,2.12735124796629,-1.84528945863247,3.50847777432918
1.68051820830442,-1.47850005269051,4.10785932272673,-3.74195606231689,5.75001789505293
1.69045020837802,-1.0110818195343,3.64760743707418,-1.82582173883915,4.20249348396988
1.7003812083276,-0.630532160997391,1.13735185682774,4.06968372881413,4.27240748347533
1.71031320828479,-0.00360948622226715,0.328753852844238,7.26159221470356,7.26903113329377
1.72024520835839,-1.39753014922142,3.4638426053524,2.36408015906811,4.42042657569797
1.73017620830797,0.178567534089088,3.64250281780958,1.94679595291615,4.13397237826671
1.74010820838157,-1.08937545239925,3.85993591725826,0.75105087697506,4.0804315435301
1.75004020833876,-1.21899302065372,4.44356112957001,-1.53629451692104,4.85709587504196
1.75997120828833,0.800375064611435,4.09312697052956,1.16598859548569,4.33056786642709
1.76990320836194,1.00970538496971,5.31136453092098,0.856307775378227,5.47387989920637
1.77983420831151,0.683712002635002,5.34271847069264,-1.14098531663418,5.5058105899497
1.78976620838512,1.11258539021015,4.95540826141834,-0.532340453267097,5.10659413366941
1.79969820834231,1.44777527332306,4.58139871358871,-0.731767929196358,4.86011848797108
1.80962920829188,1.98636756956577,4.65488476574421,-1.05285023510456,5.16934250377549
1.81956120836549,2.79992985963821,4.43370915591717,-0.181085929870605,5.24692064092402
1.82949220831506,2.92670392692089,3.77098924219608,0.479955832958221,4.79753200533393
1.83942420838866,3.11761025547981,3.26599972486496,0.223290547728539,4.52063121439869
1.84935620834585,2.50447297632694,2.01704966425896,0.743349509239197,3.30052158455679
1.85928720829543,1.46354404449463,0.600102666020393,1.18354661464691,1.97556750554939
1.86921920836903,1.06378277420998,0.087555622458458,0.236302941441536,1.09322406571749
1.87915120832622,0.470588008761406,-1.55514594018459,-0.115581911802292,1.62889261389403
1.8890822082758,0.355499601960182,-2.54695007443428,-0.953151699900627,2.74259599862577
1.8990142083494,-0.0907423549890518,-4.46839776277542,-0.0458164429664612,4.46955388017769
1.90894520829897,-0.2631089168787,-7.0393383783102,1.82815068483353,7.27761266027186
1.91887720837258,-0.311570055484772,-8.57849686145783,2.47060648798943,8.93261331974087
1.92880920832977,0.697586275935173,-8.27665715754032,1.09349130749702,8.37767292005412
1.93874020827934,1.31227423667908,-6.75152614474297,-1.40462691485882,7.01983943729095
1.94867220835295,1.05488623559475,-5.92199160039425,-2.34603623628616,6.45652038695419
1.95860320830252,0.391516111493111,-6.43164017915726,-1.52141393780708,6.62072357298372
1.96853520837612,0.0620781344175339,-6.30493043124676,0.882526105642319,6.36669881216117
1.97846720833331,0.436358408331871,-3.51362872302532,-1.16861165642738,3.72849147341501
1.98839820828289,-0.32305574119091,-1.49365135788918,-2.34236535429955,2.79679009649695
1.99833020835649,-1.24426468670368,-1.36160719513893,-0.558589189052582,1.92722355905026
2.00826220831368,-0.466047645807266,-3.76489059627056,6.25296856462956,7.31376903383573
2.01819320837967,0.200712693929672,-6.16069657802582,17.154227989912,18.2280554596996
2.02812520833686,-2.49760542154312,4.86152887523174,-14.2639598178864,15.2752428960298
2.03805620828643,-0.916327689886093,5.98842123270035,-9.03487321257591,10.8779492213758
2.04798820836004,1.02107237219811,3.51638568520546,-0.217729845643044,3.66810078406631
2.05792020831723,-0.0645900982618332,3.32946014106274,1.78667229115963,3.77911029049386
2.06785120838322,-1.16459403455257,4.51526845872402,-0.557180594801903,4.69620897478884
2.07778333337046,-2.29219448983669,5.44352680742741,-2.69742232203484,6.49324471014533
2.08771433332004,-3.03134862184525,5.42909412503243,-2.32913719832897,6.63995614249555
2.09764633327723,-3.97778245568275,5.77146146535873,-3.45603891134262,7.81515998988969
2.10757833335083,-4.93536108255386,5.77240462124348,-4.44918147325516,8.80191228702588
2.1175093333004,-5.59249398171902,5.61164536714554,-5.29653891563416,9.5299463349484
2.12744133337401,-5.59299333393574,5.42587464809418,-5.90532586634159,9.7772472464372
2.1373733333312,-5.10819366753101,5.03531280219555,-6.08535111129284,9.406355070306
2.14730433328077,-3.8160426235199,4.13015738725662,-4.40872985064983,7.14543772235417
2.15723633335438,-2.36363460123539,1.71565961122513,-0.450534982681274,2.95520527212002
2.16716733330395,-2.16919713914394,-0.14067874610424,1.66654533863068,2.73908380736833
2.17709933337755,-3.20687034130096,0.868308600783348,-0.0641787466406822,3.32296495973558
2.18703133333474,-1.84600749671459,-0.0470735943317413,-0.558278117179871,1.92915371531967
2.19696233328432,-0.822446549534798,-2.78116848349571,2.78403508096933,4.02021986867627
2.20689433335792,-0.243594419360161,-0.575708082318306,1.3105779594183,1.4520305178966
2.2168253333075,-0.228057782649994,-0.546054512858391,1.64971208184958,1.7526368238288
2.2267573333811,1.21890882074833,-0.251602181196213,2.22619872093201,2.55049075982645
2.23668933333829,1.30718365073204,-0.888899570703507,3.11202382564545,3.49049621614505
2.24662033328786,0.810967295765877,-0.872554264068604,2.15269688129425,2.46030948485757
2.25655233336147,0.875032898783684,-0.34582012116909,0.702725101411343,1.17434947878081
2.26648433331866,0.609630119204521,-0.527434639334679,1.03940368562937,1.31536922676157
2.27641533338465,-0.777652199864388,-1.11689069509506,0.963351582884789,1.66740338280528
2.28634733334184,-1.79046596467495,-1.14708747088909,0.945990614891052,2.3273324386499
2.29627833329141,-1.29213701069355,-0.692342492938042,1.02379658997059,1.7880479969976
2.30621033336502,-1.04170836567879,0.0455036169290543,0.648543047010899,1.22793932346227
2.3161423333222,-1.77423877179623,0.81703261256218,-1.19891602098942,2.29191298585271
2.32607333338819,-2.1666641253233,1.75521485567093,-2.86415918469429,3.99732666375911
2.33600533334538,-1.60132491052151,2.07962773561478,-2.80914565622807,3.84452757900109
2.34593633329496,-1.01502284288406,1.9434519302845,-1.27873577713966,2.53819659692467
2.35586833336856,0.660987383723259,2.13402789115906,0.864634795188904,2.39553181793468
2.36580033332575,1.10738019883633,2.39303615570068,3.22954789012671,4.1692796166589
2.37573133327533,0.24594032227993,2.70526402294636,4.6465247091651,5.3822980174692
2.38566333334893,3.32854154348373,-0.907016583681107,5.15736524283886,6.20485971943057
2.39559533330612,2.96595920920372,-2.55299375653267,4.66913501501083,6.09225023615703
2.40552633337211,-2.3237460654974,-1.91924036443234,4.77441676408052,5.64609022160593
2.4154583333293,-4.15637864112854,-2.41642501831055,4.80996578872204,6.80076202834823
2.42538933327887,-4.63854355216026,-2.81765978693962,4.11453479647637,6.81063062804312
2.43532133335248,-1.30556631088257,-3.59754737734795,3.6821200427413,5.3108246566359
2.44525333330967,-2.47491793245077,-4.15632601618767,6.57126467227936,8.15976618037255
2.45518433337565,-3.67784865170717,-6.20460215091705,4.5024668571353,8.5026975928602
2.46511633333284,1.29710275858641,-5.91815875053406,4.44470659911633,7.51415300051067
2.47504733328242,3.86044608682394,-2.45570427417755,3.53128906846046,5.77957870060756
2.48497933335602,7.51859196066856,0.395575833320618,1.1399939212203,7.61480738110666
2.49491133331321,5.38076922655106,2.77888865411282,0.559076262116432,6.08173214538571
2.5048423333792,3.78012844026089,2.28835228443146,-1.25378570795059,4.59324567207036
2.51477433333639,4.75463855713606,2.60958661794662,-2.62951188236475,6.0275088440473
2.52470533328596,5.51359633147717,3.70586763203144,-1.64730478316546,6.84447313248117
2.53463733335957,5.15077367663384,4.14945553779602,0.290426523685455,6.62063428182754
2.54456933331676,4.57297462999821,4.11223917961121,0.589321277439594,6.17817995893449
2.55450033338275,4.88603104770184,4.34706979215145,1.53193044751883,6.71692832126242
2.56443233333994,5.35009707212448,4.88469671308994,1.76818281054497,7.4572294527883
2.57436333328951,6.18948300540447,5.9197193723917,0.683521091043949,8.59185535283051
2.58429533336312,6.99238465189934,7.78062557458878,-1.00083983659744,10.5087229400428
2.5942273333203,9.52956169009209,11.2627734732628,-4.72879474103451,15.4927115773237
2.60415833338629,9.06177508234978,10.1645587849617,-7.37285829663277,15.4852530621319
2.61409033334348,8.82530023276806,7.72343980550766,-4.7320034006238,12.6463157801516
2.62402233330067,10.8989632236958,7.54301811933517,-0.70917428791523,13.2735620641458
2.63395333336666,5.54777272224426,-0.434927594661713,3.96213998436928,6.83121493191464
2.64388533332385,-4.29121367990971,-9.18367608010769,-0.694081162512302,10.1605201565245
2.65381633338984,-5.99046892762184,-15.0904263281822,-2.98224516659975,16.507588284568
2.66374833334703,-10.4915467786789,-16.2985172152519,-4.51746350347996,19.9028061772792
2.67368033330422,-7.02989687919617,-11.3023170232773,-0.470792076587677,13.3185384110334
2.68361133337021,-2.27580094367266,-6.67592047691345,2.73817975401878,7.56603016876169
2.6935433333274,1.95189238607883,-4.85090623855591,3.20134793847799,6.13105242558653
2.70347433327697,6.72986104130745,-0.765135650038719,2.58278824388981,7.24894870384964
2.71340633335058,5.71808749616146,-2.15660516023636,1.35914200901985,6.26057005644044
2.72333833330777,1.46632936567068,-4.40738148272038,-2.23662664532661,5.15534985170159
2.73326933337376,-1.22365032792091,-5.23994546949863,-2.66823711454868,6.00615001043058
2.74320133333094,-4.97942043721676,-7.59588162660599,-2.28725242316723,9.36608612085468
2.75313233328052,-5.93116646647453,-5.53564267337322,-1.10534449070692,8.1880316256985
2.76306433335412,-5.75364149093628,-4.41362221598625,-0.2199026709795,7.25484725244955
2.77299633331131,-3.68712789058685,-2.8501422393322,-0.140554200410843,4.66240049215232
2.7829273333773,-2.25701851755381,-1.59197579741478,0.34979096531868,2.78403901688783
2.79285933333449,-0.901447695493698,-0.181938453912735,-0.152398320436478,0.932166721565898
2.80279133329168,0.613513547480106,2.42637347102165,-1.02812119066715,2.70568295935021
2.81272233335767,0.850376944541931,4.24577438235283,-2.99309145927429,5.26387096510094
2.82265433331486,-0.145856455564499,4.08057533740997,-3.43237113654614,5.33418604933343
2.83258533338085,-1.75519409805536,2.69411747574806,-3.08709714531899,4.45748180922997
2.84251733333804,-3.0792665541172,1.56856296122074,-2.63892356067896,4.34812486409083
2.85244933329523,-3.77843216300011,0.848246803879738,-2.21134533137083,4.45938565558771
2.86238033336122,-4.28215283453465,-0.500612876415253,-2.52856292009354,4.99810730089079
2.8723123333184,-4.06182594805956,-2.44176626622677,-3.74875871300697,6.04266865048537
2.88224333338439,-3.89200701802969,-3.97616862416267,-3.71252059400082,6.68882984662102
2.89217533334158,-2.65404153674841,-3.24183902978897,-3.04611284136772,5.17998650733709
2.90210733329877,-1.10336667001247,-1.35954780578613,-2.66768572211266,3.19097717896509
2.91203833336476,-0.378981142938137,0.436417465209961,-2.1453755825758,2.22187382651568
2.92197033332195,-0.292347041666508,1.87783272206783,-1.45128740340471,2.39122513622642
2.93190133338794,0.0597433412075043,2.79803126871586,-0.586989115476608,2.85956368511322
2.94183333334513,0.0965807998180389,3.05807682931423,0.061358634531498,3.06021676142617
2.95176533330232,0.0774317532777786,3.05535728931427,0.809473916888237,3.16171660082049
2.96169633336831,0.467495708763599,3.1472357583046,1.98790012478828,3.75171854783868
2.9716283333255,0.938332955092192,3.24469422519207,2.62796470910311,4.27956865371946
2.98155933327507,1.79590182870626,3.34666674256325,3.76294405817986,5.34651191424096
2.99149133334868,2.9252584952116,3.46626919984818,4.86878205388784,6.65411136951314
3.00142333330587,3.78464950740337,3.16463473320007,5.56051146626472,7.43355720062248
3.01135433337186,3.94000418007374,2.60739098846912,6.16301792263985,7.76562364659327
3.02128633332904,3.55481007814407,2.14333081126213,6.48583802103996,7.70043092906805
3.03121733327862,3.06651319205761,1.53736689627171,6.33008105993271,7.19978654934535
3.04114933335222,2.84526478439569,0.737601696252823,5.69169550359249,6.40585557605323
3.05108133330941,2.750320327878,-0.333080792427063,3.78600723087788,4.69138097711989
3.0610123333754,2.79794180631638,0.0462941604852676,1.41646314114332,3.13639750845546
3.07094433333259,2.64793616652489,2.31515884459019,-1.71122771412134,3.9114992914804
3.08087645831984,2.75117226719856,5.91457850039005,-4.20512366205454,7.76107290870597
3.09080745838583,2.9030110090971,6.26803157687187,-3.65110114842653,7.81320883911619
3.10073945834301,2.88054279059172,2.08768519878387,-0.269515711069107,3.56771565236977
3.11067045829259,3.30431126654148,-2.06299006819725,2.93171732962131,4.87538382781042
3.12060245836619,3.24238662153482,-3.93566963911057,3.07979865074158,5.9571575638751
3.13053445832338,1.78544846892357,-4.16071552097797,1.8850090098381,4.90434897298911
3.14046545838937,-0.0534039361774921,-2.59536852836609,-0.631579397320747,2.67164412180074
3.15039745834656,-0.865190865397453,-3.46644578576088,-0.272987787723541,3.58320023881345
3.16032845829613,-0.718013889268041,-4.2011788380146,1.77437647372484,4.6166935619198
3.17026045836974,0.168269417881966,-1.49573822915554,0.35771277308464,1.54709594892482
3.18019245832693,1.10329211801291,-4.34154475808144,-1.00167715787888,4.59016573913297
3.1901234582765,2.11630878120661,-8.02629458606243,-2.07312270820141,8.55558328829354
3.20005545835011,1.19470156721771,-3.45462505459785,-3.87809298366308,5.32929181904167
3.20998645829968,-0.799537158608437,-1.09916310667992,-5.56559269666672,5.72915711673819
3.21991845837329,-2.75112344294786,-3.9221081918478,-4.43844715476036,6.53080592365883
3.22985045833047,-5.49667858242989,-3.99468149363995,-2.66097604215145,7.29737960990635
3.23978145828005,-7.91967645585537,-1.92131729543209,-1.05321276247501,8.21717667074261
3.24971345835365,-9.9574363732338,-1.4517250674963,0.240397746562958,10.0655767780664
3.25964445830323,-10.7745414912701,-1.88351796984673,0.463350909948349,10.9477430713177
3.26957645837683,-9.28975568175316,-2.68778494119644,-0.135252529978752,9.67171348643316
3.27950845833402,-5.46579358935356,-2.29088178992271,0.154861167669296,5.92849229720929
3.2894394582836,-2.40674085974693,-1.16319011807442,1.73362371951342,3.18604206149588
3.2993714583572,0.416110085248947,-0.458643901348114,2.67973888009787,2.75036402986911
3.30930245830677,1.87953952431679,-2.1045719575882,0.737744953036308,2.91653211260671
3.31923445838038,2.4495758074522,-3.31905502080917,-0.464324471354485,4.15116189545919
3.32916645833757,2.77762331664562,-1.17992718815804,0.527778747975826,3.06365302626503
3.33909745828714,1.04701179027557,-0.395924327373505,0.268746217489243,1.15117952179363
3.34902945836075,-1.08667959362268,-1.37006343841553,-1.07210833221674,2.05118566699543
3.35896045831032,-1.6262527602911,-1.75744498372078,-0.868778132200241,2.54717222702924
3.36889245838393,-2.04232016086578,-1.19425637483597,-0.522385568618774,2.42285092620581
3.37882445834111,-2.17271073102951,-0.827190980315208,-0.793337355852127,2.45648142651966
3.38875545829069,-1.79087205380201,-0.983010506629944,-0.64762825012207,2.14311799012329
3.39868745836429,-0.871016153991222,-1.18883834481239,-0.251138496994972,1.49501715551455
3.40861845831387,0.220739736445248,-1.13611107766628,1.19622717887163,1.66446203787084
3.41855045838747,0.406248756051064,-1.41795096516609,0.837175685763359,1.69602067211512
3.42848245834466,0.725957843363285,-0.624307215213776,1.36832681536675,1.67005765258579
3.43841345829424,0.953045572936535,0.122604417800903,0.979056034684181,1.37181574069178
3.44834545836784,0.812643765583634,0.68752555668354,0.251075931787491,1.09367289641735
3.45827645831741,1.26509890079498,2.14774721324444,-0.111672171056271,2.49514809071132
3.4682084582746,1.06935341656208,3.03189767539501,-1.04492316484451,3.38050065286303
3.47814045834821,0.735663417354226,3.13162427723408,-1.23037024050951,3.44413736748791
3.48807145829778,0.552409632280469,2.30543434023857,-0.567513209581375,2.43767412548044
3.49800345837139,0.649969255998731,1.41365618526936,-0.0797715166211128,1.55796256012713
3.50793445832096,0.0921104572713375,1.31217951178551,-0.498278375566006,1.40662032796526
3.51786645827815,-0.311477961838245,1.3953970849514,0.529928476810455,1.52478711167704
3.52779845835175,-0.442737866789103,1.34735285282135,0.569920800626278,1.52845878180646
3.53772945830133,-0.146485323607922,1.76140705704689,0.633898987770081,1.87772220984443
3.54766145837493,-0.284892718791962,2.14476922631264,0.532924590110779,2.22827455985638
3.55759245832451,-0.242475700825453,2.36768204391003,0.679325713813305,2.47511538155148
3.5675244582817,-0.330709454119205,2.37107927620411,1.60758084654808,2.88369586733356
3.5774564583553,-0.29568740978837,2.16618523836136,2.45767800182104,3.28937238570477
3.58738745830487,-0.139496585279703,1.89141404986382,3.40378146797419,3.89649004708743
3.59731945837848,0.205529630184174,1.88612641274929,4.27382581472397,4.67603489811134
3.60725045832805,0.759777407795191,2.2858514302969,4.50259958893061,5.10644509703418
3.61718245828524,1.25658447772265,2.98924048304558,4.23403434276581,5.33306760043901
3.62711445835885,1.70514558658004,3.72702110409737,3.56539383083582,5.43233291973004
3.63704545830842,1.8833888925612,4.43349982559681,2.63486383885145,5.49049923718025
3.64697745838203,1.44724536940455,4.79802518963814,1.98974579840899,5.39209172974192
3.6569084583316,0.737456831485033,4.59409301877022,1.69338493555784,4.95147309226168
3.66684045828879,-0.10606966137886,3.88703951597214,2.11400760948658,4.42598634710514
3.67677145835478,-1.06685928672552,3.13809889912605,2.90945230185986,4.41030227253941
3.68670345831197,-1.94888165473938,2.02362427353859,3.55313192725182,4.52967343161629
3.69663545838557,-2.51927520275116,0.672426291704178,4.65675178170204,5.33706303329435
3.70656645833515,-2.65279578745365,-0.310167308449745,5.68584302544594,6.2819057744585
3.71649845829234,-1.91910310104489,-0.409088748693466,5.76293622493744,6.08783576071529
3.72642945835832,-0.0649761606752872,0.30981121301651,4.91275691628456,4.92294479023162
3.73636145831551,2.0097099468112,1.32814241051674,3.763187302351,4.46816237456752
3.74629345838912,3.58099478691816,2.08794598460197,3.02844314038754,5.13366437869782
3.75622445833869,4.2820358902216,1.91372527062893,1.53205440849066,4.93410239933924
3.76615645829588,4.60008875370026,1.29885487675667,0.150604394674301,4.78231347952948
3.77608745836187,4.52434743046761,1.20953339517117,0.117282282114029,4.68470338861608
3.78601945831906,3.50773882269859,1.36354496240616,0.257893200516701,3.77226661513246
3.79595145827625,2.78780536562204,1.2734791302681,0.074337991476059,3.06580070924321
3.80588245834224,2.34090925142169,0.829725163578987,0.0207500141859055,2.48369292255636
3.81581445829943,2.00020471304655,0.157125794291496,-0.298148356676102,2.02839834645812
3.82574545836542,1.57271565377712,-1.08295988738537,-0.719480590224266,2.04056094371886
3.83567745832261,0.511439873278141,-3.10749983489513,-0.829681894183159,3.2567618908031
3.8456094582798,-1.18848605006933,-5.58062004089356,-1.23691941440105,5.83830358663837
3.85554045834579,-3.32486452192068,-8.1326063221693,-1.26481034070253,8.87658464041565
3.86547245830297,-4.77891356527805,-9.43902983486652,0.0802737924456596,10.5801579841538
3.87540345836896,-5.22079876184464,-9.54450892746449,0.789257461130619,10.9076724244028
3.88533545832615,-4.72540511012077,-9.50772292435169,0.243608160316944,10.6200561955562
3.89526745828334,-3.75621245115995,-9.59779051065445,-0.21614466547966,10.3089006776219
3.90519845834933,-2.48397819310427,-8.77066384971142,-0.33959576010704,9.1219524943257
3.91513045830652,-1.28900421872735,-7.2996646052599,-0.842027412950993,7.46027113376866
3.92506145837251,-0.390974805504084,-5.5884126251936,-1.86076499193907,5.90302154181976
3.9349934583297,0.317160578370094,-3.74086263298988,-1.94634688675404,4.22881901657534
3.94492445827927,0.831721695363522,-1.95271801292896,-2.42620624065399,3.22356097177391
3.95485645835288,1.45087181255221,-0.408054376244545,-3.07198998659849,3.42179190895535
3.96478845831007,2.6660125413537,0.935608298778534,-3.30167066395283,4.34557417755182
3.97471945837606,2.9585162883997,1.68458692252636,-3.76400971323252,5.07527544568587
3.98465145833325,2.58793437838554,2.13516517460346,-3.61916365653276,4.93504612363824
3.99458245828282,2.13095941856503,2.37720248043537,-3.69522716134787,4.88331684928616
4.00451445835643,1.45036588221788,2.39639011859894,-3.47214915990829,4.46117322926068
4.01444645831361,0.657755919992924,2.25504303574562,-3.13478118896484,3.91723308548756
4.0243774583796,0.217728091478348,2.00963364064693,-2.68397723436356,3.36002480437578
4.03430945833679,-0.345883271098137,1.53264877796173,-2.14218007922173,2.6566111882674
4.04424045828637,-1.11573163077235,1.0727214127779,-1.58277315706015,2.21376583405931
4.05417245835997,-1.92994953989983,0.804209083914757,-1.14340197086334,2.38302864946789
4.06410445831716,-2.93650005966425,0.684875598549843,-0.919938345551491,3.15251863523646
4.07403537502978,-3.79764494419098,0.63753771007061,-0.93772762209177,3.96331862801053
4.08396737498697,-4.30494703531265,0.814145842194557,-1.37047479003668,4.59059947929853
4.09389837505296,-4.39556396752596,1.07083919405937,-1.84260383248329,4.88496346512729
4.10383037501015,-4.15450080782175,1.30102711737156,-2.38655451714993,4.96469445038226
4.11376237496734,-3.68091902464628,1.46665183961391,-3.04894406318665,4.99962922476126
4.12369337503333,-3.07973550081253,1.47478707075119,-3.50172671556473,4.89099761291289
4.13362537499052,-2.54309558987618,1.53382523775101,-3.62230039536953,4.68412373806498
4.14355637505651,-1.91710905432701,1.7323352855444,-3.06706166088581,4.01038151544219
4.15348837501369,-1.17706015214324,1.98858600318432,-2.19813062399626,3.18931389705909
4.16341937496327,-0.430312094986439,2.35190801024437,-1.3264572429657,2.73425101356101
4.17335137503687,0.483199575841427,2.68942333102226,-0.415813631415367,2.76394295520205
4.18328337499406,1.55489524081349,2.90180648267269,0.383435551822186,3.31439329217081
4.19321437494364,2.74590451061726,3.0725013256073,1.17525087743998,4.28502865827176
4.20314637501724,4.23690298676491,3.14525472164154,2.15501033216715,5.69982839347054
4.21307737496682,5.81556350469589,3.02160365223885,3.54838457286358,7.45264386545541
4.22300937504042,7.39906727135181,2.87493501842022,5.42908476948738,9.61698545701346
4.23294037498999,8.35782177329063,2.61773178935051,7.36851849317551,11.4455567492078
4.24287237494718,7.85097284138203,2.11454087555408,7.74500784516335,11.2291675645236
4.25280437502079,7.02887946367264,1.51903236687183,6.46244214177132,9.66828652255326
4.26273537497036,6.43964384794235,0.514191280603409,5.52189586937428,8.4985139614878
4.27266737504397,6.1188281750679,-0.892178104519844,5.13879857897759,8.04010515114644
4.28259837499354,5.38506166756153,-2.20793026506901,4.70426011651754,7.48357591414064
4.29253037495073,4.39099583029747,-2.99916203856468,3.91536664456129,6.60347736246596
4.30246237502433,3.38121209263802,-3.05759560346603,2.49363370031118,5.19612308563452
4.31239337497391,2.06871741592884,-2.44691707849503,0.805967926383019,3.30402470244338
4.32232537504751,0.403710772097111,-1.1098909932375,-1.50437749028206,1.9125877856047
4.33225637499709,-1.13436509907246,0.766622596979141,-4.37763026475906,4.58673534435193
4.34218837495428,-1.46822781041265,1.25942417800427,-6.11744121551514,6.41599011756519
4.35211937502027,-1.27664305865765,-0.0086398458480835,-6.10945450365543,6.241420229274
4.36205137497745,-1.15810918003321,-1.37279408812523,-4.88385179042816,5.20363226911137
4.37198337505106,-0.0705688762664795,-3.06166409611702,-2.83945411384106,4.17627425684167
4.38191437500063,0.775214057117701,-4.92603301942349,0.779931736886501,5.04728161063024
4.39184637495782,0.190062575340271,-6.81220854878426,3.65536523044109,7.73330486031632
4.40177737502381,-0.353680825531483,-7.97744636178017,3.38797849059105,8.6742803064079
4.411709374981,-0.354971890747547,-7.36812088251114,1.03510335087776,7.44893612064944
4.42164037504699,-1.41226337850094,-4.11636029720306,-1.66668684124947,4.66012392254098
4.43157237500418,-4.20706230640411,-0.792339236140251,-3.74083953648806,5.68516096103231
4.44150437496137,-6.65342389941216,0.845222039222717,-4.10683167457581,7.8643827656184
4.45143537502736,-7.90565892577171,1.01986316800118,-4.16388529658318,8.99319213044962
4.46136737498455,-8.33363301157951,0.199248551130295,-3.90616868197918,9.20582929066634
4.47129837505054,-9.04671967148781,-0.76462869644165,-2.54468047767878,9.4288489536839
4.48123037500773,-9.7918677842617,-1.95270924210548,-0.382514322996139,9.99200006485006
4.49116237496492,-9.78319168567658,-4.27824046254158,1.61769886851311,10.7995893738238
4.50109337503091,-7.50883471190929,-7.2432103228569,4.06760387420654,11.1978612149542
4.51102537498809,-1.10251677721739,-8.82680121302605,5.26919675052166,10.3388779514042
4.52095637505408,3.67054752588272,-9.36371009588242,3.94195247232914,10.8023597048791
4.53088837501127,2.31496734827757,-9.16091813206673,2.19310786575079,9.70006272953109
4.54081937496085,-1.42195864677429,-5.58687597692013,1.07151103913784,5.86372624545328
4.55075137503445,-1.62026550382376,-0.299605482816696,0.148818070292473,1.65443965325444
4.56068337499164,-0.478936663269997,3.16010314106941,-0.666583753824234,3.2649603505224
4.57061437494122,-0.280229271948338,4.69686251163483,-2.79197940051556,5.47121511832248
4.58054637501482,-0.431398215293884,4.78503735423088,-3.69965028762817,6.06383535003144
4.59047737496439,-0.269185343384743,4.06135670900345,-2.73866682708263,4.90585110420438
4.600409375038,-0.313311941027641,3.27759943127632,-1.67675223827362,3.69490466356697
4.61034037498757,-0.254631842896342,3.01468639612198,-1.09902657419443,3.21885551915044
4.62027237494476,-0.398897051811218,3.07861809790134,-0.23551766037941,3.11327429228778
4.63020437501837,-0.3410417034477,2.81812347114086,-0.481644801199436,2.87925529549013
4.64013537496794,-0.48720199495554,2.41666124582291,-0.502861715555191,2.51604595862677
4.65006737504154,-0.499667089283466,2.07036106824875,-0.0756343191862106,2.13114586625878
4.65999837499112,-0.327546987533569,1.64849439918995,-0.0684416592121124,1.68211327618524
4.66993037494831,0.029789517223835,1.27633374094963,-0.0259838569164276,1.27694572885584
4.67986237502191,0.423186458721757,1.19555387198925,0.0404454830288887,1.26888599833531
4.68979337497149,0.926598031818867,1.45021356225014,0.125156727433205,1.72550499713174
4.69972537504509,1.30097975492477,1.56283736765385,0.0678908514976501,2.03460515289242
4.70965637499467,1.39423524320126,1.53628223776817,0.0617062515020371,2.07553913211505
4.71958837495185,1.42352043807507,1.52820138573647,0.0510578870773315,2.08911867083157
4.72951937501784,1.37823360666633,1.42539388597012,0.0436117503046989,1.98322403915193
4.73945137497503,1.37828096911311,1.33636885821819,0.226468217074871,1.933087687711
4.74938337504864,1.45437064021826,1.3020410245657,0.514908733963966,2.01882039644277
4.75931437499821,1.5011951431632,1.047701177001,0.858999833464623,2.02216352653249
4.7692463749554,1.36459029838443,0.679676839113236,1.41456805855036,2.07968028320288
4.77917737502139,1.04082236632705,0.448826426267624,2.33108987599611,2.59205253980979
4.78910937497858,0.780426996052265,0.737019313573837,3.19269259750843,3.36831557116211
4.79904037504457,0.560594491660595,1.11493538618088,3.87545384287834,4.07142353332578
4.80897237500176,0.570077506005764,1.22427890360355,4.28070944935083,4.48868806962836
4.81890437495895,0.810578602105379,1.28878421723843,4.24079577058554,4.50581304501309
4.82883537502494,1.33220768719912,1.86582663416862,3.68010216861963,4.33580884289014
4.83876737498213,2.08647964909673,2.65533815681934,2.81404503822327,4.39580112497194
4.84869837504812,2.30904265701771,3.24537776470184,1.97966607570648,4.44783459661571
4.85863037500531,1.60036231264472,3.75140691697598,1.84219964370132,4.4752556257405
4.86856137495488,0.43859613776207,3.16259873270988,2.43525597631931,4.01557828791781
4.87849337502848,-0.827857855260372,1.66419709682465,3.69790080070496,4.13876442159375
4.88842537498567,-2.21461889505386,0.323948611021042,5.30143011152744,5.75453219474198
4.89835637505166,-3.04276472568512,-0.575695803165436,6.80569358110428,7.47711896077225
4.90828837500885,-2.76110376298428,-0.429000272154808,7.56325416326523,8.06291192818225
4.91821937495843,-1.86785094022751,0.468350864052773,6.90852622389793,7.17188638037812
4.92815137503203,-0.163799660056829,1.70530360758305,5.3738332593441,5.64029916067431
4.9380823749816,1.59772390276194,2.92507313847542,4.1331020450592,5.30954866723716
4.94801437505521,2.83928980708122,3.61838626921177,3.25675089150667,5.63566430610847
4.9579463750124,3.97972168475389,3.93745303988457,2.40583980381489,6.09342155861685
4.96787737496197,4.99192880094051,3.82915558934212,1.56639218240976,6.48346899045286
4.97780937503558,5.60361363172531,3.51283584058285,0.558179006874561,6.63717298104069
4.98774037498515,5.67786449968815,3.42282906532288,-0.458651502728462,6.64562000780914
4.99767237494234,5.08973693132401,3.35870031237602,-0.955467782020569,6.17245562972449
5.00760337500833,3.7824854528904,3.29306063890457,-1.15222951233387,5.14578248878858
5.01753537496552,1.9836717107892,2.81859884977341,-0.989656159579754,3.58592697169414
5.02746737503912,0.671828121542931,1.72253944516182,-0.0646529558300972,1.85004734256501
5.0373983749887,0.0914214725419879,0.398131066560745,0.445722431838512,0.6045946725258
5.04733037494589,-0.759667699411511,-2.12070442557335,0.208464640080929,2.26228640546232
5.05726137501188,-2.44824030339718,-5.34404929697514,0.312560281455517,5.88646221437141
5.06719337496907,-4.08213362038136,-7.78747558772564,0.916953049600124,8.84021457993196
5.07712520833593,-5.26430146157742,-9.6080360019207,1.19128423511982,11.020271494905
5.0870562082855,-5.06997685074806,-10.6471575593948,0.684252577722073,11.8124862307568
5.09698820835911,-4.20923045396805,-12.1565741801262,0.47049036026001,12.8732776708428
5.10691920830868,-3.0684986141324,-13.855248799324,0.175883077383041,14.1920589729966
5.11685120838229,-1.37115832954645,-14.6926390779018,0.531680302619934,14.7660557422206
5.12678220833186,1.23197150051594,-12.1504217398167,-0.190262550115585,12.2142008363818
5.13671420828905,3.69517307460308,-7.0466842353344,-2.62384973108768,8.37822476274723
5.14664520835504,4.56316124796867,-2.95610548138618,-4.11900499284267,6.82108512797688
5.15657720831223,4.5767873069644,-0.480135927200317,-4.70370141506195,6.58044979950723
5.16650920838583,4.15145148485899,1.36271173417568,-5.28093328177929,6.85418040528568
5.17644020833541,3.24077279001474,2.67268158316612,-5.56325322568417,6.97105598704964
5.1863722082926,2.05685692369938,3.50253713965416,-4.61291520595551,6.14633333920007
5.19630320835859,1.01095318078995,3.75870131850243,-3.74870696514845,5.40394909728188
5.20623520831578,-0.128665349185467,3.4470160728693,-2.89204250961542,4.50137584035403
5.21616620838176,-1.01146744340658,2.83828934848309,-1.79360007226467,3.50655871674949
5.22609820833895,-1.79029054820538,2.0509459733963,-0.943794400691986,2.88136556229187
5.23603020829614,-2.44383208751678,1.19743726015091,-0.586047421395779,2.78381444139134
5.24596120836213,-2.97347083479166,0.454628033638001,-0.681761956214905,3.08431756135261
5.25589320831932,-3.62920040220022,-0.061151350736618,-1.06725660502911,3.78336777329477
5.26582420838531,-4.29269536435604,-0.281039403676987,-1.6705509737134,4.61486264078984
5.2757562083425,-4.61155309706926,-0.151783778071404,-2.59764660358429,5.29501918405285
5.28568720829207,-4.77925504267216,0.28073885679245,-3.53908983886242,5.95359134944276
5.29561920836568,-4.93546457827091,0.877402190566063,-4.19351021468639,6.53560809168176
5.30555120832287,-4.97183659851551,1.40609690487385,-4.44564069181681,6.81615645572866
5.31548220838886,-4.88643333613873,1.65583733260632,-4.134249561131,6.61143308627505
5.32541420834605,-4.52643254756928,1.6335968631506,-3.67011775553226,6.05202401337463
5.33534520829562,-3.97736934989691,1.57435930609703,-3.18208867192268,5.33139404716743
5.34527720836923,-3.2121728888154,1.65652613461018,-2.62554951667786,4.46717402468435
5.3552082083188,-2.27290891081095,1.90809498667717,-1.98850823521614,3.57226908232691
5.36514020827599,-1.20840166658163,2.19294852912426,-1.23734947711229,2.79290020725689
5.37507220834959,0.0793777066469193,2.56036709547043,-0.394373645782471,2.59177758620757
5.38500320829917,1.5141385397315,2.7728169053793,0.565225486457348,3.20945617804612
5.39493520837277,3.24369961380959,2.85765766561031,1.69741776019335,4.64424607133059
5.40486620832235,5.0853070807457,2.64312332332134,2.9338998028636,6.43849493756193
5.41479820827954,6.7202751159668,2.26510141611099,4.65542066305876,8.48326137812487
5.42472920834553,8.317223970294,1.97427728176117,7.05070770442486,11.0809054003068
5.43466120830271,8.39742145657539,1.69073877811432,8.93451452672482,12.3774324705663
5.4445922083687,6.73171519339085,1.24255554556847,9.81815803527832,11.9689665775476
5.45452420832589,5.59837511122227,0.442061782479286,8.91713543236256,10.5381462707906
5.46445620828308,5.27308573365212,-0.897906036973,8.04680486440659,9.6624394917389
5.47438720834907,4.98308196365833,-2.4708661043644,7.10130541563034,9.02024521663877
5.48431920830626,4.71868548989296,-3.38749317169189,5.01132518470287,7.67166754021724
5.49425020837225,4.00624143898487,-3.44218978106976,1.89877569437027,5.61284153471946
5.50418220832944,1.9044384303689,-2.72270100474358,-1.72625827431679,3.74432291956033
5.51411320827901,-0.338267565071583,-1.18939383029938,-4.41130087137222,4.58133801491475
5.52404520835262,-1.19184176713228,0.505980620384216,-5.63036639750004,5.77732887727391
5.53397620830219,-1.64827162027359,1.24102123618126,-5.40844936072826,5.78863174942181
5.5439082083758,-0.990587621033192,-0.084688732624054,-4.25029369533062,4.36502377003206
5.55384020833299,-0.522102563381195,-1.58094444036484,-3.34521926432848,3.73663864143217
5.56377120828256,0.0900237321853638,-3.63200443446636,-2.39941371381283,4.35393461760429
5.57370320835616,1.14868551492691,-6.97359988689423,-0.962264293134213,7.13277830613956
5.58363420830574,1.78903544336557,-10.4702395248413,1.89019899845123,10.788856092233
5.59356620837934,1.23004718184471,-11.9245122241974,4.15207596749067,12.6864787350317
5.60349720832892,-2.55133724033833,-10.2357860577106,2.8820607277751,10.9355800930607
5.61342920828611,-5.54395565986633,-4.89137423336506,-0.308951672315598,7.3997592788697
5.62336120835971,-5.96955226778984,0.823137105703354,-1.98060981631279,6.34317934612723
5.63329220830929,-6.66044289708138,4.0870020121336,-3.08150808423758,8.40004625616355
5.64322420838289,-7.17386936187744,5.4914289522171,-3.74950657188892,9.7815639389195
5.65315520833246,-7.15877009689808,5.56346781849861,-3.13056476175785,9.59169428178733
5.66308720828965,-6.99671743869782,4.20061575114727,-2.0634367954731,8.41765994886209
5.67301820835564,-6.94850071370602,2.08764660716057,-1.44123516261578,7.39710006142422
5.68295020831283,-7.37061471998692,-0.0450644910335541,-1.60700372636318,7.54390171830102
5.69288120837882,-7.29910853505135,-1.95177076399326,-1.02200295656919,7.6243612561889
5.70281320833601,-5.10765864729881,-3.55679813146591,1.92769251465797,6.51574924597273
5.7127452082932,-0.880338077545166,-5.23605999469757,3.591718288064,6.410285458516
5.72267620835919,3.71248901903629,-7.23985343635082,1.79688152968884,8.33227674336629
5.73260820831638,5.37480272769928,-8.76998323380947,0.0520106908679009,10.286098161837
5.74253920838237,4.02949873924255,-7.52769782960415,-1.21080691874027,8.62375487231946
5.75247120833956,0.582077015787363,-3.60429389476776,-0.386353604793549,3.67137811184098
5.76240220828913,0.108461391851306,0.193790175318718,-0.651085416376591,0.687917673119873
5.77233420836274,0.281790186166763,2.73320377349854,-1.1171912419796,2.96612960735745
5.78226620831993,-0.173574304282665,3.86982531309128,-1.03289661169052,4.00905866799065
5.79219720838591,-0.837673283815384,3.8656574177742,-0.820302375555039,4.03954202717981
5.8021292083431,-1.36333241611719,3.10129944741726,-0.258925234079361,3.39761325289233
5.81206020829268,-1.43768151730299,1.94282160043716,-0.391108560562134,2.44835655541934
5.82199220836628,-1.37499673426151,0.811457292437554,0.221543984413147,1.61188110408602
5.83192320831586,-0.881990500688553,0.770257226228714,0.380943468511105,1.23139001297869
5.84185520838946,-0.832226894795895,1.0916897803545,0.289051550924778,1.40283248466953
5.85178620833904,-0.698971481323242,1.41272706270218,0.439626417160034,1.63634662344483
5.86171820829622,-0.492191716432571,1.90974390149117,0.774380097985268,2.11873523385137
5.87164920836221,-0.404919976294041,2.04607465803623,0.971727719306946,2.30100770401351
5.8815812083194,-0.241573036909103,1.69575218081474,0.869235384464264,1.92080794055631
5.89151320827659,-0.194169951975346,1.25671165466309,0.745219448804855,1.47389897214604
5.90144420834258,-0.254858495593071,1.05125569939613,0.744075733423233,1.31291282854504
5.91137620829977,-0.0606881781667471,1.33476087391377,0.602902605235577,1.46586534064357
5.92130720836576,0.323653984442353,1.5774203234911,0.657136115133762,1.73920517835627
5.93123920832295,0.763042200654745,1.55609962105751,0.352454079687595,1.76858794209499
5.94117020838894,0.898263082578778,1.83694314301014,0.580206637680531,2.12552967953507
5.95110220834613,1.02761979192495,2.18438294291496,0.927147377729416,2.58594925280529
5.9610332082957,1.30726653501391,2.44667149543762,1.36027900010347,3.0895802560019
5.97096520836931,1.5825619263947,2.71471429288387,2.11294955581427,3.78665178862248
5.9808972083265,2.10018201425672,2.81317789614201,2.89825751513243,4.5524313275843
5.99082820827607,2.60426418989897,2.7830126953125,3.8915693539381,5.44717024422506
6.00076020834968,3.24156567245722,3.11393937349319,4.52926026105881,6.38111000869368
6.01069120829925,3.54235609352589,3.24185423254967,4.71018246889114,6.72634554930756
6.02062320837285,3.37715529441834,3.10567141056061,4.39410830318928,6.35283878066713
6.03055420832243,2.72402715325356,2.82036237001419,3.57763409972191,5.30794061584601
6.04048620827962,1.54232884347439,2.5871695625782,2.63939864695072,4.00482831398169
6.05041720834561,0.00632157102227211,2.25059739768505,2.469106092453,3.3409150699345
6.0603492083028,-1.31108695954084,1.27902579903603,3.11500532090664,3.61360127287924
6.0702812083764,-2.28216695353389,0.123649899959564,4.24243766874075,4.81890575491082
6.08021299995016,-2.87080542236567,-0.831157731413841,5.69816486299038,6.43439428022493
6.09014500002377,-3.01952789068222,-1.20990586280823,6.76445667743683,7.50595064068405
6.10007599997334,-2.48808849334717,-0.704340979456902,6.72623459815979,7.20617182944944
6.11000800004695,-1.04022200345993,0.750941534042358,5.75956062734127,5.90072144945445
6.11993899999652,0.971008950322866,2.69776262998581,4.76487059980631,5.56100471338171
6.12987099995371,2.5747427675128,4.44965334355831,3.96595353841782,6.49288092187035
6.1398020000197,3.7039351272583,5.64812439143658,2.93605187058449,7.36483843372286
6.14973399997689,4.504292357862,5.9194164866209,1.51128275960684,7.59026460452191
6.15966600005049,4.76716533958912,5.14344009876251,-0.168559732139111,7.01493077712366
6.16959700000007,5.32134865164757,4.07621916174889,-1.52455857038498,6.87434309309148
6.17952899995726,5.54472573816776,3.39560559868813,-2.43743260234594,6.94371648213845
6.18946000002325,4.43704791605473,2.60981641352177,-2.56205255538225,5.75001297548049
6.19939199998044,2.50409407675266,1.46138993024826,-1.54893034994602,3.28714662016204
6.20932300004642,0.974663898646832,-1.20431475520134,0.308771870434284,1.5797733422528
6.21925500000361,-0.550394389405847,-4.46664008975029,2.06393556296825,4.95112489070302
6.22918599995319,-2.80198632538319,-7.32514209330082,3.41098260641098,8.55240529885717
6.23911800002679,-4.17714678168297,-9.17725291371346,3.08163116812706,10.5435751495571
6.24904899997637,-3.92246604144573,-10.1994783568382,1.9894107529521,11.1073333317168
6.25898100004997,-3.38338930338621,-10.0521519112587,0.358677563667297,10.6123386121989
6.26891300000716,-3.72862908840179,-11.4711846113205,-1.47268675088882,12.1515249056287
6.27884399995673,-3.58219872862101,-13.6794452440739,-2.31140259325504,14.3283617997682
6.28877600003034,-1.87509008556604,-14.3513230669498,-2.11804511189461,14.6274588256804
6.29870699997991,0.925858066678047,-11.7510487246513,-2.5531580632925,12.0608032644977
6.30863900005352,2.58395242452621,-7.8205287283659,-2.44959568798542,8.59290397700382
6.31857000000309,3.38181903362274,-4.50992995083332,-2.78698441654444,6.28835831323709
6.32850199996028,3.76487393170595,-2.15756059527397,-2.66098949074745,5.09020711894775
6.33843300002627,3.78388819992542,-0.408121034502983,-2.23865329027176,4.4154208454442
6.34836499998346,3.35319545120001,0.929544736146927,-2.40166079878807,4.22799571225921
6.35829600004945,2.22892966300249,2.04536656022072,-2.96668894171715,4.23708568301236
6.36822800000664,1.43878284037113,3.16587609708309,-2.69759920030832,4.40112587519746
6.37815899995621,0.696085295677185,3.69315344631672,-2.77481869965792,4.67156675354964
6.38809100002982,-0.24150023907423,3.70998407185078,-2.33482624679804,4.39018425371833
6.39802299998701,-1.4752764827013,3.19677219986916,-2.09028604030609,4.09451937699241
6.407954000053,-2.31881276965141,2.66679109811783,-2.21705133676529,4.17180824721747
6.41788600001019,-3.08978978812695,2.05278843104839,-2.76469746172428,4.62647742157296
6.42781699995976,-3.50676058351994,1.58079884469509,-3.40304676532745,5.13585650739232
6.43774900003336,-3.9554484307766,1.27303708076477,-3.9245780557394,5.71563720097124
6.44767999998294,-4.45131307572126,0.995939869880676,-4.13743073880672,6.15828039641975
6.45761200005654,-4.98466305077076,0.852450367212296,-4.16226327896118,6.54965441543814
6.46754300000612,-5.38869337320328,0.969918590784073,-3.98104695618153,6.76960066846455
6.47747499996331,-5.69588503360748,1.24561188519001,-3.67553753972054,6.89233135379425
6.4874060000293,-5.71707300424576,1.67419174253941,-3.35782439947128,6.83833506230482
6.49733799998648,-5.39410964906216,2.03673899352551,-2.91414176881313,6.46041383214683
6.50726900005247,-4.84165711283684,2.28502755761147,-2.27993872582912,5.8190304287624
6.51720100000966,-3.95700876027346,2.46533171474934,-1.59229973316193,4.92658068368492
6.52713299996685,-2.73696382552385,2.63278427660465,-1.02566623717546,3.93376604025259
6.53706400003284,-1.23597772032023,2.78450432002544,-0.270758244395256,3.05849885732794
6.54699599999003,0.431519837379456,2.96219711065292,0.448609494566917,3.02689140390403
6.55692700005602,2.22991257995367,3.11425980091095,1.1614590498805,4.0025131288173
6.56685900001321,4.17394221514464,3.13435901999474,2.09213609933853,5.62343609724022
6.57678999996278,6.11653197348118,2.94192656815052,3.03467217922211,7.43479189690956
6.58672200003639,8.01237353503704,2.69173590481281,4.73107866346836,9.68641714805562
6.59665299998596,9.43153955161572,2.7966139036417,7.02248144030571,12.0867792740321
6.60658499994315,8.83060073375702,2.69177157282829,8.54418715417385,12.5788822096745
6.61651600000914,7.09225041747093,1.95925286114216,8.95714383602142,11.5917692116944
6.62644799996633,6.78365659475327,0.553583972454071,9.08941019296646,11.3552555966874
6.63637900003232,6.37095075845718,-1.66651902616024,9.40713268876076,11.4830503201541
6.64631099998951,4.95048666000366,-4.05453359305859,8.7904636913538,10.8728474990282
6.6562429999467,3.86490517348051,-5.34013634026051,5.22056838154793,8.40885737535043
6.66617400001269,2.49860120236874,-4.96211384832859,-0.411695729792118,5.5709133170587
6.67610599996988,0.00831561774015427,-3.36700745165348,-5.20154797375202,6.19620122754517
6.68603700003587,-2.25270941197872,-0.870132347345352,-8.31920734584332,8.6626232089274
6.69596899999306,-3.74648005306721,0.858674728274345,-9.73906157970429,10.4700886113862
6.70589999994263,-2.92715094655752,0.460357135534287,-7.87942831635475,8.41816678076308
6.71583200001624,-2.14756390303373,-0.016596736907959,-5.30816025674343,5.72615678099718
6.72576299996581,-1.11278331845999,-0.187645336389542,-3.08991141021252,3.2895364428857
6.73569500003941,0.0944258084893227,-1.18703974127769,-1.14637528002262,1.65292342936036
6.74562599998899,1.23443493247032,-3.88343061447144,0.721152309179306,4.13822710746422
6.75555799994618,0.667326934933662,-7.67701115906239,2.15448671400547,8.00147727455889
6.76548900001217,0.769751149713993,-10.0131591689587,2.63218084394932,10.3819193490722
6.77542099996936,0.755534814298153,-9.97586094975472,2.52999782681465,10.3193761220407
6.78535200003535,-1.22811379998922,-7.42724441885948,1.99944720625877,7.78909573017429
6.79528399999253,-4.606294696033,-3.68786463975906,-1.26410195052624,6.03458782098755
6.80521499994211,-6.85159188508987,-1.12776359260082,-4.81896874666214,8.45213711802712
6.81514700001571,-7.95529360055924,0.270819640159607,-5.65769803762436,9.76573533501361
6.8250789999729,-8.89904356241226,0.506586976647377,-4.99567511200905,10.2179438496875
6.83501000003889,-9.55448778569698,-0.146623025536537,-2.70636066824198,9.93147135248637
6.84494199999608,-10.1684927916527,-1.09938062310219,0.618764639496803,10.2464507556244
6.85487299994566,-10.4860328543186,-2.40631108939648,2.83293826907873,11.1253205489645
6.86480500001926,-8.0118426078558,-4.06977553009987,4.42875744134188,10.0183125980723
6.87473599996883,-1.13957248315215,-5.33460838258266,3.1397872826457,6.29403973773144
6.88466800004244,4.50756065905094,-5.86521630585194,1.53667517066002,7.55514632482907
6.89459899999201,5.781097676754,-6.12375386953354,0.517849298715591,8.43739412964558
6.9045309999492,3.43357215464115,-5.6823592543602,-0.853829725384712,6.69385162942014
6.91446200001519,1.20205217510462,-2.92250738024712,-1.88531891226769,3.67972909603775
6.92439399997238,1.55222218617797,0.660374010801315,-1.52597681254149,2.2746632238244
6.93432500003837,1.41240298077464,2.65803138434887,-1.12478823691607,3.21327894808238
6.94425699999556,0.629064802229405,3.26000866770744,-0.863498096466064,3.43059878177733
6.95418799994513,-0.0561569514870644,3.10128599882126,-1.13416512429714,3.30264424043176
6.96412000001874,-1.1309421390295,2.59368569970131,-1.15560218632221,3.05641162864238
6.97405099996831,-1.98364949136972,1.98247566282749,-0.797620733678341,2.91569441010341
6.98398300004192,-2.3152225792408,1.93510795354843,-0.452940527200699,3.05123802816065
6.99391499999911,-2.44280531644821,2.16538066148758,0.194787125587463,3.27018550658929
7.00384599994868,-2.46768755793571,1.88048034131527,1.14523214936256,3.3071505671193
7.01377800002229,-1.87579350560904,2.2543635892868,0.47162822842598,2.97038543866538
7.02370899997186,-1.40154163151979,2.60104442059994,0.426217289865017,2.98519885451491
7.03364100004546,-0.761572941541672,2.41918139576912,0.61725635021925,2.61025618911436
7.04357199999504,-0.270926059484482,2.00164985239506,0.51510081499815,2.08454597236729
7.05350399995223,0.116155240433291,1.74068569421768,0.328900617957115,1.77528993193416
7.06343500001822,0.396661953628063,1.68048042297363,0.00606473207473755,1.72667076723642
7.07336699997541,0.639699425697327,1.6112651771307,-0.228223843574524,1.7485642536228
7.08329720830079,0.809699034690857,1.45407272458076,-0.163753613233566,1.6723502207959
7.0932292083744,0.964633584916592,1.29058282077312,-0.0335548317432404,1.61159793284711
7.10316020832397,0.861292526721954,1.10871570289135,0.132391194999218,1.41017827062335
7.11309220828116,0.770178288817406,0.886368311047554,0.568393215537071,1.30456668164704
7.12302320834715,0.743797698318958,0.756697533130646,1.16636720269918,1.57678109584143
7.13295520830434,0.767547918856144,0.687167707085609,1.84381888389587,2.11210732256027
7.14288620837033,1.05971727825701,0.695833865404129,2.6949395942688,2.97823519803883
7.15281820832752,1.46118176937103,0.963600089550018,3.60641672641039,4.00871786239138
7.16274920827709,1.9500271242857,1.80509160518646,4.31865056991577,5.07067098455406
7.1726812083507,2.47387537389994,2.45747773468494,4.87415096729994,5.99304629000075
7.18261220830027,2.86276579320431,3.15784085333347,4.42956698834896,6.14723112840191
7.19254420837387,3.09565366834402,3.66147030830383,3.46922379791737,5.91818808529761
7.20247620833106,2.64968389928341,4.28100151777267,2.70212114453316,5.7139528735392
7.21240720828064,1.18127701789141,4.63888152122498,2.13098967790604,5.23982386806112
7.22233920835424,-0.0258697996661067,4.24855707228184,2.20534623429179,4.78690489315129
7.23227020830382,-1.09909557133913,3.43724128246307,2.76881857931614,4.5485156956937
7.24220220837742,-2.14901079654694,2.25893026471138,3.81671914637089,4.9283220660564
7.252133208327,-2.78363893210888,0.79208722114563,5.66746405720711,6.36366220897911
7.26206520828418,-3.0406266912818,-0.138612340092659,6.94969529986382,7.58702107664862
7.27199620835017,-2.53766557306051,-0.0711524283885956,7.21405142784119,7.64770208835959
7.28192820830736,-1.02668306797743,1.36082834601402,6.41991768121719,6.64238473313553
7.29185920837335,0.8059480458498,3.44059056758881,5.24970154881477,6.32823688384201
7.30179120833054,2.233807117939,5.07173452377319,4.49133960574865,7.13333840315699
7.31172220828012,3.34843698710203,6.25167106747627,3.82257864117622,8.05652089058854
7.32165420835372,3.73885060608387,6.79190584659577,2.56686949163675,8.16687258812888
7.3315852083033,3.99602869212627,6.59586449325085,0.605661613941193,7.7356641416381
7.3415172083769,5.13665674388409,5.73864221334457,-1.23284682869911,7.79981847611235
7.35144820832647,6.25527763009071,4.63008146166801,-2.59578046470881,8.20391545496167
7.36138020828366,6.16901131868362,3.52606107294559,-3.1401708599925,7.7685571614126
7.37131120834965,4.41240277916193,1.65713833808899,-2.71577702432871,5.43974729219952
7.38124320830684,1.47810200348496,-1.42318480789661,-0.611785695254803,2.14114975353252
7.39117420837283,-0.87439277485013,-5.06570370554924,2.69361666172743,5.80357540465023
7.40110620833002,-1.96123682141304,-7.70777043700218,5.93731422901154,9.92511336122737
7.4110372082796,-2.88657273173332,-10.5152946603298,5.49260892033577,12.2095240153292
7.4209692083532,-2.75981445193291,-11.3819467449188,3.16398218393326,12.1316145163582
7.43090020830277,-3.83109335660934,-12.7829267513752,-0.0795338273048401,13.3449173196302
7.44083220837638,-4.59394976198673,-16.3631979453564,-2.41089355230331,17.1659846538179
7.45076320832595,-3.45999835342169,-19.2044863307476,-4.37621582329273,19.9983786534206
7.46069520828314,-0.57786950558424,-16.8862711465359,-2.85936914563179,17.1363963046728
7.47062620834913,1.61086698174477,-11.8554624545574,-3.23241799592972,12.3933614707514
7.48055820830632,3.12900063157082,-7.90607758641243,-4.58217405438423,9.65883154524478
7.49048920837231,3.63888426840305,-5.49042381584644,-4.1974892449379,7.81057925878832
7.5004212083295,4.22018462777138,-3.46574879765511,-2.87338258266449,6.17071312631574
7.51035220827907,4.55593847483397,-1.76031070411205,-2.66720741987228,5.56500355634259
7.52028420835268,4.51898348718882,-0.226725202202797,-2.76772690415382,5.30404829265119
7.53021520830225,4.11984728425741,1.25152108132839,-3.04121872186661,5.27147588222165
7.54014720837586,3.21943863898516,2.62200318038464,-2.71630912095308,4.96165507353249
7.55007820832543,2.1321293002367,3.56057192444801,-2.69162071466446,4.94656141715698
7.56001020828262,0.937222422659397,3.94236177742481,-2.6487974613905,4.84114968216274
7.56994220835622,-0.368098889887333,3.87179056227207,-2.48892522990704,4.61746767729923
7.5798732083058,-1.63979491174221,3.43587011039257,-2.54800345033407,4.58109728678392
7.5898052083794,-2.71604950457811,2.75004316985607,-2.98140843003988,4.88144021515207
7.59973620832898,-3.27675947874784,2.0492432641983,-3.53857586860657,5.24004482951345
7.60966820828617,-3.82571362584829,1.36326137244701,-3.84505387634039,5.59276368431276
7.61959920835216,-4.48382885724306,0.791660959124565,-4.16685626685619,6.17204499691037
7.62953120830935,-5.09380834758282,0.372299237251282,-4.40294169187546,6.74324741841922
7.63946220837534,-5.49937005579472,0.146840541958809,-4.40552674591541,7.04792870737995
7.64939420833252,-5.74416900157928,0.181253160238266,-4.23816481590271,7.14075424822591
7.6593252082821,-5.84870142996311,0.479078750610352,-4.05468679010868,7.13283322614659
7.6692572083557,-5.69020270943642,0.92097914993763,-3.83845850944519,6.92534282168252
7.67918820830528,-5.45990135014057,1.31506218910217,-3.51915141820908,6.62754389036814
7.68912020837888,-5.00600246429443,1.64519072234631,-3.11520734220743,6.12137484315079
7.69905120832846,-4.14802384704352,1.97280261397362,-2.60444282233715,5.28026272113105
7.70898320828564,-2.91445810317993,2.39639713525772,-1.95131643533707,4.24787253762153
7.71891420835163,-1.57429206311703,2.80101393342018,-1.25481423318386,3.44943956535088
7.72884620830882,-0.206716907322407,3.25504204273224,-0.562998282015324,3.30983347697125
7.73877720837481,1.02977653741837,3.62483223974705,0.350143552422523,3.78450115479306
7.748709208332,2.39550923556089,3.98249881982803,1.43502600431442,4.86395528152221
7.75864020828158,4.03902823895216,4.3337925195694,2.69857480823994,6.50982432277522
7.76857220835518,5.54799433171749,4.3116526222229,4.30337705790997,8.239517191076
7.77850320830476,6.45823214650154,3.99214087843895,5.70381151914597,9.49628438376566
7.78843520837836,6.43493917822838,3.28411907672882,6.8266283673048,9.93965468227762
7.79836620832793,5.75217267036438,2.17615298688412,7.26877318024635,9.52145975141838
7.80829820828512,5.46202447414398,1.05047451138496,7.1151446056366,9.03119542554234
7.81822920835111,5.87040220141411,0.150606733560562,6.92979254722595,9.0832994634191
7.8281612083083,5.92293943405151,-0.861667333245277,6.46911030650139,8.81323268104882
7.83809220837429,6.12537354826927,-1.78233307242394,4.98411984443665,8.09557674971958
7.84802420833148,5.95188665986061,-2.32891909718513,2.88970742404461,7.01421613365591
7.85795520828106,4.95587194561958,-2.4139036989212,0.678886295557022,5.55414119476088
7.86788720835466,3.62796166956425,-2.15452705979347,-0.794353601932526,4.293610412242
7.87781820830423,2.3680241060257,-1.66824512422085,-1.57420874029398,3.29677313736074
7.88775020837784,1.76086999028921,-1.03144123971462,-2.32931524604559,3.09681185562597
7.89768120832741,0.86231959015131,-0.893108981251717,-2.25195921421051,2.57148965201473
7.9076132082846,0.296406763494015,-1.54499926686287,-1.68975001394749,2.30870847308345
7.91754420835059,0.333175517320633,-2.67348440587521,-1.45093949407339,3.06002454389858
7.92747620830778,0.912914085388184,-4.71869952321053,-0.765148513913155,4.86672267198275
7.93740720837377,2.20275664865971,-8.09301307082176,0.543551904559136,8.40502504997197
7.94733920833096,2.06421856820583,-11.4069821834564,0.903053340911865,11.6273705612039
7.95727020828053,-0.809179509580135,-12.1451066207886,-0.804952557384968,12.1986202059367
7.96720220835414,-3.98067039549351,-8.16383863985539,-4.24649768292904,10.0263024443848
7.97713320830371,-4.82889907300472,-1.83559652924538,-5.99903217494488,7.91682183148436
7.98706520837732,-4.60261972099543,2.46522821903229,-4.55685502588749,6.93010722824439
7.99699620832689,-5.18708020806313,3.67663798570633,-2.60961117625237,6.87266603684772
8.00692820828408,-6.86076499700546,3.07564946651459,-2.33568841874599,7.87306524642537
8.01685920835007,-8.22282535135746,1.29566229701042,-2.24247561514378,8.62103789756986
8.02679120830726,-9.62362350940705,-0.801079069375992,-1.70550416707993,9.80635516336887
8.03672220837325,-10.3989140188694,-2.55758966803551,-1.23437353670597,10.7797196489519
8.04665420833044,-10.6865420651436,-4.63315885126591,-1.45368827015162,11.738038670831
8.05658520828001,-7.94787816166878,-7.64277220308781,-0.740085008740425,11.0511746000679
8.06651720835362,-0.725290383696556,-9.40192398905754,2.62126467704773,9.7874025841301
8.07644820830319,4.53564834415913,-9.9706522500515,4.75604978263378,11.9417763221483
8.0863807083806,4.03980182558298,-8.60454503774643,2.24606112778187,9.76744514631759
8.09631170833018,-0.821053158044815,-4.43345889508724,3.01091260313988,5.42174148835133
8.10624370828737,-1.59506458908319,-0.123004952073097,2.41792190551758,2.89925983705555
8.11617470835336,-0.359745265245438,2.99768386244774,0.47103649020195,3.05571604867793
8.12610670831054,-0.162333616912365,4.73456360399723,-0.140779902935028,4.73943706620792
8.13603770837653,-0.0641600355505943,5.23475606560707,-0.5598305529356,5.26499741923698
8.14596970833372,-0.237702180147171,4.86921737909317,-1.27742132306099,5.03960171520732
8.1559007082833,-0.549880784600973,3.8526450240612,-1.27490672796965,4.09519593227469
8.16583170834929,-0.520336558073759,2.92165485620499,-0.842960336208344,3.08502825933162
8.17576370830648,-0.399217917770147,2.30058816790581,-0.551276076436043,2.39916364106904
8.18569470837247,-0.352119326591492,2.00921731889248,-0.70324755012989,2.15766062471845
8.19562670832966,-0.284142959564924,1.74350931465626,0.181478278040886,1.77580863754069
8.20555770827923,-0.149972676113248,1.59618637740612,0.450591993033886,1.66533356994438
8.21548970835283,-0.0149931380152702,1.34409595370293,1.05061952233315,1.70605395801412
8.22542070830241,-0.0130378291010857,1.27229740798473,0.947721390724182,1.58653285934724
8.23535270837601,0.199982888326049,1.2552779173851,0.606794219613075,1.40851518644768
8.24528370832559,0.551800498589873,1.4681814712286,0.686462825238705,1.71209574298218
8.25521570828278,0.656340016722679,1.55235038638115,0.570842614173889,1.77944801267306
8.26514670834877,0.583993879258633,1.4835660803318,0.507726014256477,1.67326114855852
8.27507870830596,0.6956812530756,1.42209956467152,0.537826603353024,1.67200389742189
8.28500970837195,0.847194597423077,1.41166637778282,0.511306556761265,1.72394171683743
8.29494170832913,1.03783400058746,1.36704744458199,0.681280438005924,1.84663509219419
8.30487270827871,1.00489692717791,1.38322669029236,0.876342090368271,1.92122600709541
8.31480470835231,0.975571678876877,1.48371635377407,1.26620840996504,2.18092596310591
8.32473570830189,1.10033050328493,1.30716961741447,1.89886983454227,2.5544326715898
8.33466770837549,1.16819796591997,1.14588645279408,2.52419300347567,3.00820421000172
8.34459870832507,1.49990846335888,1.07552164435387,3.21467052698135,3.70682867192049
8.35453070828225,1.93238519757986,1.29566814422607,3.60410298317671,4.28980498451051
8.36446170834824,2.32404456585646,1.80548687696457,4.15945690780878,5.09529663266982
8.37439370830543,2.65833076179028,2.42575717449188,4.14014852464199,5.48560389699936
8.38432470837142,2.84386963874102,2.85051295280457,3.68659462451935,5.45930385138934
8.39425670832861,2.79365141183138,3.07981268405914,3.03611234843731,5.14856412721572
8.40418770827819,2.35231234520674,3.30041994452477,2.10632787644863,4.56757729028568
8.41411970835179,1.50874536037445,3.39060447514057,1.41068389937282,3.97020658571369
8.42405070830137,-0.0605230674147606,2.95329414010048,1.28500048398972,3.22130960379392
8.43398270837497,-1.4842206761241,2.02287466049194,1.43654657274485,2.89112416944683
8.44391370832454,-2.59932797044516,0.635797578692436,2.26460030972958,3.50558968246955
8.45384570828173,-3.46102804809809,-0.413837857246399,3.68671858549118,5.07364473041009
8.46377670834772,-3.7348037481308,-0.952622526884079,5.09397090017796,6.38786257269509
8.47370870830491,-3.3560003605485,-1.06140120327473,6.28306067526341,7.20181660300761
8.4836397083709,-2.17476924329996,-0.424449384212494,6.27110779702664,6.65105792662266
8.49357170832809,-0.314608268737793,1.02440996289253,5.50955882906914,5.61280969085942
8.50350270827767,1.43828056454659,2.71105802893639,4.85071737349033,5.74003010933687
8.51343470835127,2.78759632766247,3.78436708688736,4.19382888793945,6.29923235605967
8.52336570830084,3.65276877433062,4.5112157535553,3.24529999673367,6.65024506034551
8.53329770837445,4.58770084261894,4.52902754187584,2.36060954421759,6.86524339821158
8.54322870832402,5.17789657115936,4.11200529098511,1.21347383379936,6.72247864704895
8.55316070828121,5.32532475829125,3.09624511420727,-0.141946422457695,6.16165289312621
8.5630917083472,5.5837167263031,2.23408719956875,-0.483830490410328,6.03350064542341
8.57302270829678,4.92908117294312,1.89887392759323,-0.571465927362442,5.31301578281976
8.58295470837038,3.05411914139986,1.50419915020466,-0.641852662861347,3.46442400034459
8.59288570831995,1.6634694108367,0.891779324412346,-0.365573769807816,1.9225100846056
8.60281770827714,1.54594914704561,-0.0158769446611404,-0.237946593761444,1.564234453049
8.61274870834313,1.14647132053971,-2.00385542213917,0.290934939086437,2.32690270111104
8.62268070830032,-0.502435453534126,-5.65516385436058,0.74894237101078,5.7266250339733
8.63261170836631,-1.89108148947358,-7.2262493044138,0.956964376866818,7.53064731799084
8.6425437083235,-2.67322303533554,-7.85892271578312,0.62804124712944,8.32485576195747
8.65247470838949,-2.8741681560874,-7.96824401378632,-0.352901099324226,8.47810677206961
8.66240670834668,-3.1627718102932,-9.12321353137493,-1.32534890323877,9.7464198749266
8.67233770829625,-3.35888508439064,-12.106189892292,-0.874410755038261,12.5939087215567
8.68226970836986,-2.17702012896538,-12.3851371622086,0.0197483861446381,12.5750319748061
8.69220070831943,-1.376011518538,-12.7681005513668,-0.121306335926056,12.842605445006
8.70213270827662,0.516354458034039,-9.57632655143738,0.155193289518356,9.5914929548641
8.71206370834261,1.28998669713736,-5.98434513866901,-0.915190114080906,6.18983241795884
8.7219957082998,1.95977180153132,-3.33490214467049,-1.77713782131672,4.25681766870035
8.73192670836579,2.72090093940496,-0.812264208197594,-2.39425676196814,3.71423484828354
8.74185870832298,2.94602605104446,1.30057161927223,-3.36209988355637,4.65556351662167
8.75178970838897,2.88102840185165,2.98668700397015,-3.92589309453964,5.71255288830783
8.76172170834616,2.32007810711861,3.91601130008698,-5.18417765021324,6.89881184223127
8.77165270829573,1.44754372358322,3.90241769313812,-5.48567178368568,6.88598878896328
8.78158370836172,0.408622140884399,3.21182994961739,-5.36768140375614,6.26855863269298
8.79151570831891,-0.487107562422752,2.33563228547573,-5.257652592659,5.77367844059746
8.8014467083849,-1.11039180725813,1.49558970987797,-4.75310600191355,5.10507347756577
8.81137870834209,-1.4692228603363,0.880284283161163,-4.04299294352532,4.39082089977613
8.82130970829167,-2.07719821751118,0.44386214017868,-3.39633416175842,4.00585219056356
8.83124170836527,-2.85585613846779,0.241620984077454,-2.84375474095345,4.03747891762495
8.84117270831484,-3.63405446827412,0.28325199007988,-2.54202964246273,4.44392824778106
8.85110470838845,-4.3568071603775,0.423440739512444,-2.45550839245319,5.01902302824002
8.86103570833802,-4.86417854100466,0.664731355905533,-2.54941409111023,5.5318724553487
8.87096770829521,-5.10869126558304,0.857340393662453,-2.62560828119516,5.80754490675107
8.8808987083612,-5.24997110545635,1.07910130977631,-2.71460670411587,6.00797351882632
8.89083070831839,-5.24925949931145,1.28446780264378,-2.57997397899628,5.9883928193997
8.90076170838438,-4.93281052708626,1.40103964805603,-2.33271803319454,5.63356949135706
8.91069370834157,-4.30896202594042,1.60780537962914,-2.11659383296967,5.06282147952366
8.92062470829114,-3.40541927307844,1.82872195780277,-1.65888636320829,4.20630578898427
8.93055670836475,-2.19464626818895,2.12294741749763,-0.962796974480152,3.20161771515647
8.94048770831432,-0.864528375864029,2.45663982868195,-0.0830889344215393,2.60564624067886
8.95041970838793,0.601644869148731,2.81968701660633,0.801940656602383,2.99261093978204
8.9603507083375,2.36649330496788,3.08839347302914,1.66268266797066,4.23119113974739
8.97028170828708,4.51837420731783,3.12815512418747,2.67817855060101,6.11340333261553
8.98021370836068,6.67783251643181,2.98417504012585,3.84772868514061,8.26460911489938
8.99014470831025,9.0312678194046,2.94570211529732,4.94437164187431,10.709237615762
9.00007670838386,9.87159106135368,2.65385354876518,6.31757269620895,12.016778832648
9.01000770833343,9.052214884758,1.90658465087414,7.79926766753197,12.0998444411733
9.01993970829062,8.63724383711815,0.955602267980576,8.46512695133686,12.1315098441478
9.02987070835661,8.62218959569931,-0.147610035538673,8.9550107717514,12.4320617786818
9.0398027083138,7.50552694201469,-1.45542226195335,8.76496749222279,11.6308144073242
9.04973370837979,5.7617574262619,-2.39288003504276,6.54000077962875,9.03854710109624
9.05966570833698,3.51943120747805,-2.53536498606205,2.95207587271929,5.24682986145074
9.06959670828655,0.359062018096447,-1.88791624546051,-1.31732856988907,2.32991584478049
9.07952833338641,-3.00852840095758,-0.845009200572968,-4.89140434652567,5.80440523823342
9.08945933333598,-4.78071041464806,0.473109912872314,-6.87536432504654,8.38747039699724
9.09939133329317,-4.99667381644249,0.234179817438126,-6.48241973876953,8.18800067686894
9.10932233335916,-4.63780826479197,-0.945922787189484,-5.02697993516922,6.90467687070807
9.11925333330873,-3.62990762293339,-1.5775986635685,-3.70880819678307,5.42404877696065
9.12918533338234,-2.03345198124647,-2.4025805658102,-2.30147723704576,3.89924579988026
9.13911633333191,0.00868545413017273,-4.09724107146263,-0.902813020348549,4.19553705555136
9.1490483332891,1.7415081050992,-6.46522775530815,-0.0161251589655876,6.69569118380506
9.15897933335509,2.4565699544549,-8.28406850337982,0.0403943198919296,8.64072674089973
9.16891133331228,1.58037550628185,-8.46960708796978,0.120887090563774,8.61663766524441
9.17884233337827,-0.0966492122411728,-6.19946829557419,0.502702086567879,6.22056730579262
9.18877433333546,-2.71424739271402,-2.44873263895512,0.785726035237312,3.73909024341332
9.19870533328503,-5.31477287292481,-0.285138301849365,-0.501545507311821,5.34599499044505
9.20863733335864,-6.9121105670929,0.442621361017227,-2.34652623295784,7.31295914954441
9.21856833330821,-8.22389012932777,0.0653519904613495,-3.95298792243004,9.12484264285088
9.22850033338182,-9.62935085713863,-1.37039380609989,-4.75758496910334,10.8276032367238
9.23843133333139,-11.3042816877365,-3.44805512309074,-2.82483490526676,12.1513604526234
9.24836333328858,-11.5947596669197,-5.60230385541916,-0.282909927964211,12.8803842430811
9.25829433335457,-8.33813653707504,-7.18071645140648,2.79022523581982,11.3522053598854
9.26822533330414,-1.30074586629868,-7.82650282859802,3.51178977370262,8.67633296672207
9.27815733337775,4.79404118925333,-8.20912064731121,2.2152828463912,9.76114597861767
9.28808833332732,6.89126816689968,-7.74682106673718,0.684652234911919,10.3909365444573
9.29802033328451,4.52731138408184,-5.78460074365139,-1.02639538496733,7.41698332330412
9.3079513333505,2.21764395207167,-1.90885395526886,-1.14549351990223,3.14226407624242
9.31788333330769,1.64319068223238,1.55873145282269,-0.993982806801796,2.47340275337673
9.32781433337368,1.02752784445882,3.42766120433807,-1.27762392908335,3.79960494091542
9.33774633333087,-0.0921719992160797,4.10586279094219,-0.908750283122063,4.20623727487615
9.34767733328044,-1.12391320109367,3.99384358763695,-0.872565373778343,4.23973322481714
9.35760933335405,-2.11570505619049,3.10850906431675,-0.374304832220078,3.77877501250772
9.36754033330362,-2.70312394201756,2.18317139983177,-0.157119362354279,3.47818960106814
9.37747233337723,-2.86420888602734,1.94795720994473,-0.522038828730583,3.50296365571725
9.3874033333268,-2.62772175729275,2.45848930299282,-0.195213972330093,3.60377576739629
9.39733433327638,-2.2070066973567,2.90414069116116,-0.0448832273483276,3.64786598168471
9.40726633334998,-1.63377929627895,2.90344136416912,0.944896016120911,3.46295177924833
9.41719733329956,-1.03213852018118,2.86393465161324,0.860590860843658,3.16354994323157
9.42712933337316,-0.541565020680428,2.64765900850296,0.857238067388535,2.83518041773562
9.43706033332273,0.0252774401754141,2.37712061941624,0.883564278781414,2.53614416446979
9.44699233327992,0.511678951308131,2.14170236170292,0.850794143378735,2.3606259826036
9.45692333334591,0.876308176517487,2.00975000023842,0.566629110574722,2.26452635944924
9.4668553333031,1.24583437174559,1.88121650576592,0.442038978338242,2.29923406415249
9.47678633336909,1.56388606578112,1.62047746539116,0.369682315886021,2.2821813813244
9.48671833332628,1.7964631614089,1.3775560605526,0.487547273039818,2.31573809696024
9.49664933327585,1.90427938610315,1.25487387478352,0.785508518815041,2.41205556633395
9.50658033334184,1.89901981562376,0.99108785033226,1.41722532570362,2.56847406275081
9.51651233329903,1.9156571906805,0.839858973026276,2.0490818810463,2.92811238206646
9.52644333336502,1.82690055012703,0.717804193496704,2.53946826964617,3.20962732615417
9.53637533332221,1.81033684998751,0.664124414920807,2.6866482424736,3.30703183046415
9.5463063333882,2.01141411781311,0.750225250124931,2.8493750846386,3.56757102973748
9.55623833334539,2.16626943826675,0.996428697109222,3.51239437580109,4.24529241380973
9.56616933329497,2.20916110396385,1.52212612867355,4.0160565751791,4.82969679689075
9.57610133336857,2.53269310086966,2.19614695608616,4.06397976994515,5.26816166859396
9.58603233331814,2.59988959550858,2.83709183871746,3.8317789426446,5.43056588906216
9.59596433327533,2.04752622932196,3.33036645948887,3.33062315225601,5.13583050699627
9.60589533334132,1.10542518228292,3.23347926557064,2.44923242971301,4.20429452931861
9.61582733329851,-0.515228576660156,2.4223178422451,2.40837691068649,3.45447008367333
9.6257583333645,-1.94559318065643,0.886160734891891,2.98411101311445,3.67090345981366
9.63568933331408,-2.86175802558661,-0.309031194448471,4.00171978712082,4.92939352565667
9.64562133338768,-3.46564325541258,-1.19076617181301,5.38912606716156,6.51699984789636
9.65555233333726,-3.59209981888533,-1.71754066050053,6.70724810421467,7.8000194974628
9.66548433329444,-2.94034898936748,-1.09093841314316,7.14581442117691,7.80374669901872
9.67541533336043,-1.44193595141172,0.656915967464447,6.2364238679409,6.43457073447067
9.68534733331762,0.470951705574989,2.90938856720924,4.81436347961426,5.64485899361847
9.69527833338361,1.94438543826342,4.71149458408356,3.78520967066288,6.34875012890406
9.7052103333408,2.8128162458539,5.91959365725517,3.28863751262426,7.3327117077787
9.71514133329038,3.27833033323288,6.47449851572514,2.68564486026764,7.73816962332849
9.72507333336398,3.67843922048807,6.61307635724545,1.79006162971258,7.77611822465122
9.73500433331355,3.93029780209064,6.26891743004322,0.389163484275341,7.40931945426242
9.74493533337954,4.48703050017357,5.59150872588158,-1.20906941860914,7.27050626848733
9.75486733333673,5.03208630859852,4.69801324367523,-2.31638032793999,7.26352799117618
9.76479833328631,4.53175059020519,3.56159635663033,-2.77509527295828,6.39709979548412
9.77473033335991,2.53851312696934,1.79870001375675,-2.62895288854837,4.07317614712291
9.78466133330949,0.346615927219391,-1.86814447045326,-1.27619574666023,2.28883855858838
9.79459333338309,-2.20163573741913,-7.16494417190552,2.16635714650154,7.80235401612886
9.80452433333267,-4.03086552590132,-10.0261996293068,4.90719270586968,11.8681547069101
9.81445633328985,-4.57469108015299,-11.2458773589134,4.70075324892998,13.0190106059515
9.82438733335584,-4.28702561169863,-11.7904566192627,2.55994141817093,12.8041694752351
9.83431833330542,-2.53647595703602,-11.218567353487,-0.0774873018264771,11.501998436241
9.84425033337902,-1.0705459561944,-12.072385969162,-2.00175100922585,12.2839561516508
9.8541813333286,-0.358998575806618,-13.8417733061314,-3.52917003750801,14.2891080683647
9.86411333328579,1.15054054409266,-13.3753233718872,-4.83726731568575,14.2696241691768
9.87404433335178,3.32149126321077,-9.40216840267181,-4.93582885980606,11.1263417805261
9.88397633330897,3.98802882403135,-4.36746663451195,-4.71421061575413,7.5632612300891
9.89390733337496,4.03249923795462,-0.974852471351623,-3.90795266747475,5.69942817274048
9.90383933333214,4.07920299589634,1.06227594673634,-2.20888745427132,4.75894011880602
9.91377033328172,3.42538751453161,2.35286578416824,-1.05942367494106,4.28854702038398
9.92370133334771,1.89573046445847,2.9847580075264,-0.439144606590271,3.56306361757213
9.9336333333049,0.319043674170971,3.49587365269661,-0.24502640247345,3.51894293780901
9.94356433337089,-0.526586793065071,3.83876607298851,-0.976299072504044,3.99582012767472
9.95349633332808,-1.24377235114574,3.76106125473976,-1.65690854251385,4.29393727732889
9.96342733327765,-2.42461053550243,3.00401171922684,-1.5863829356432,4.17365948259097
9.97335933335125,-3.06598898917437,2.33953647136688,-1.21633955419064,4.04390915991976
9.98329033330083,-3.54125857114792,1.76865643501282,-0.837537628412247,4.04600137566057
9.99322233337443,-3.93434582948685,1.0704433375597,-0.892348258495331,4.17387247761191
10.003153333324,-3.95658396005631,0.530162365436554,-1.77022933602333,4.36684561998907
10.01308433339,-4.05504727095366,-0.0173557054996491,-3.4333037674427,5.31331199438903
10.0230163333472,-4.34666341066361,-0.383405438661575,-4.81905060768128,6.50105616768462
10.0329473332968,-4.65683071911335,-0.641609711050987,-5.5047845774889,7.23881127066816
10.0428793333704,-4.8983373901248,-0.592783706188202,-5.56923960506916,7.44053301104751
10.0528103333199,-4.90017136931419,-0.183552285432816,-5.17437128484249,7.12877893355774
10.0627423332771,-4.68331041991711,0.366983533501625,-4.49840216517448,6.50412910717584
10.0726733333431,-4.12484811544418,0.876042712926865,-3.52930101513863,5.49888974846871
10.0826057083905,-3.27454016804695,1.2663958132267,-2.64299760818481,4.3945202269169
10.0925367083401,-2.31096025139093,1.56899623990059,-2.00475823223591,3.43821786017825
10.1024677082896,-1.30360281586647,1.93193116128445,-1.65572798967361,2.85887626337089
10.1123997083632,-0.0957265216112137,2.37383156061172,-1.48616692185402,2.80230832791631
10.1223307083128,1.18590859740973,2.79137889146805,-1.36475884437561,3.3257693877425
10.1322627083864,2.66712789773941,3.2785267996788,-0.840568825006485,4.30916060836502
10.142193708336,4.06911070168018,3.65024657785893,0.370593019723892,5.47898723925938
10.1521257082932,5.07233912587166,3.79708361148834,2.27909321844578,6.73355285557687
10.1620567083592,5.57581772267818,3.88421823441982,4.25396282315254,8.01705022248804
10.1719877083087,5.32717832565308,3.91761811494827,5.687958548069,8.72235249530939
10.1819197083823,4.61738481760025,3.74815294146538,7.05515685081482,9.22735775918655
10.1918507083319,3.63787971675396,3.09977156996727,8.06625738143921,9.37588719872257
10.2017827082891,3.32959491938353,2.06647266983986,8.77580764532089,9.61099950317615
10.2117137083551,3.00065834105015,0.64159216940403,9.29531287550926,9.78868900543697
10.2216457083123,2.30823164820671,-0.890032761096954,9.3044818943739,9.62774506207661
10.2315767083783,1.78400800734758,-2.33737650990486,8.51464877486229,9.008066234137
10.2415087083355,1.51443762481213,-3.11335172832012,6.34670469403267,7.22960170251009
10.251439708285,1.82899823874235,-2.57786430358887,2.94192832231522,4.3180506225241
10.261370708351,2.08556762963533,-1.12589482247829,-0.751259914934635,2.48628698038939
10.2713027083082,2.00419046759605,0.815272015929222,-4.19863880753517,4.72334793621014
10.2812337083742,0.617581747770309,2.57171478688717,-6.43377675175667,6.95619202234367
10.2911657083314,-1.12990659713745,3.37263422727585,-6.77448289811611,7.65146842678678
10.301096708281,-1.37925409197807,2.28993220210075,-4.68575338661671,5.39466552629968
10.3110287083546,-1.07076756566763,0.839296470880509,-3.12183428406715,3.40540908598297
10.3209597083041,-0.292250562608242,-0.386771095991135,-2.40747380822897,2.45579567744296
10.3308917083778,0.7171194845438,-2.33162635803223,-2.44261995971203,3.45212023199752
10.3408227083273,2.19867792338133,-5.94585759580135,-2.28918141961098,6.74001177537586
10.3507537082769,3.32529955476522,-10.6359496164322,-1.5707492351532,11.2538124443204
10.3606857083505,3.28782153367996,-15.2129465460777,-1.16056705713272,15.607383795667
10.3706167083001,3.00251980215311,-16.5616442584991,-2.40529572039843,17.0026066592733
10.3805487083737,0.0625409415364265,-12.1137538504601,-4.01146914213896,12.7608318066354
10.3904797083233,-4.80961378633976,-5.75083716630936,-3.94951379925013,8.47367524381373
10.4004117082804,-8.70990835547447,-2.19756022810936,-2.15746820926666,9.23831389328856
10.4103427083464,-12.0376792359352,-0.319323463439941,0.432423816919327,12.0496754818961
10.420273708296,-13.6825992321968,-0.748738303184509,2.22993801534176,13.8833264871152
10.4302057083696,-13.8999893546104,-2.38880043268204,2.66538016498089,14.3534080618277
10.4401367083192,-13.5583225107193,-4.18772848784924,3.1184820753336,14.5289404172086
10.4500687082764,-9.1946507191658,-5.71062294065952,3.11005623757839,11.2616724343564
10.4599997083424,-0.833338158130646,-6.23669167041779,2.81472097635269,6.89299859657428
10.4699317082996,4.87238627761602,-5.91296291470528,1.85367261171341,7.88285358359505
10.4798627083655,5.99750780582428,-4.96954448997974,0.298132276833057,7.79457216101698
10.4897937083151,4.01648254483938,-3.61252911329269,-2.38405190885067,5.90476097157889
10.4997257083887,2.6777210059762,-1.51710687875748,-2.59744195103645,4.02722084773402
10.5096567083383,2.67472840100527,1.5586033987999,-1.22554014801979,3.32946921119616
10.5195887082955,2.11139828950167,4.06563804030418,-0.570036867856979,4.61653088827479
10.5295197083615,1.04929147347808,5.05001328706741,-0.744522168338299,5.21132996988469
10.5394517083187,-0.826096673905849,4.1660049122572,-1.48911274909973,4.50060989457215
10.5493827083847,-2.19822052493691,2.16124726474285,-1.37689561754465,3.37624121727492
10.5593137083342,-2.53553981781006,0.719292309880257,-1.87522749513388,3.23462853404517
10.5692457082914,-2.70875481069088,1.00966913223267,-0.606349831223488,2.95371706479297
10.5791767083574,-2.55020989716053,1.82056099891663,0.843884196281433,3.24501978531493
10.5891087083146,-3.00155471920967,2.00385191380978,0.539857633709908,3.64913681431154
10.5990397083806,-2.66127863556147,1.93877415776253,0.951126809120178,3.42722794951413
10.6089717083378,-1.90176654517651,1.99280301511288,1.06569130539894,2.95358727783664
10.6189027082874,-1.03718620218337,2.2572760874033,1.06018001228571,2.70093173020208
10.6288337083533,-0.0494511453062296,2.65678124964237,0.896115911900997,2.8042745500014
10.6387657083105,0.787453229650855,2.89956056714058,0.566513043344021,3.05752695812859
10.6486967083765,1.42015624254942,2.98706648826599,0.33836199760437,3.32474041091882
10.6586287083337,1.89020133733749,2.88530739426613,0.373378633260727,3.46947711605869
10.6685597082833,2.20508296340704,2.81667336165905,0.349648000895977,3.59420275253334
10.6784917083569,2.30194252923131,2.6703450357914,0.394822419583797,3.54761423509738
10.6884227083065,2.34911157935858,2.27054517388344,0.548016838431358,3.31270630363246
10.6983537083725,2.38952899575233,1.80402273416519,0.74730632007122,3.08590563416064
10.7082857083296,2.2579254207015,1.4484056031704,1.24680764079094,2.95814727318978
10.7182167082792,1.9263713362813,1.16868474662304,1.86022821754217,2.92184523607526
10.7281487083528,1.63246191859245,0.946905119419098,2.18688321232796,2.88860163490892
10.7380797083024,1.35303868532181,0.566418026089668,2.44310323208571,2.84961338902039
10.748011708376,1.54950220763683,0.359905478954315,2.49649094223976,2.9602290570052
10.7579427083256,2.05230018854141,0.851304312944412,2.5996755874157,3.4197906744317
10.7678737082751,2.1611841148138,1.49012139379978,2.85758252888918,3.88032942619515
10.7778057083488,1.82402971342206,2.11660552740097,3.08569556772709,4.16276596636918
10.7877367082983,1.119052118361,2.16618406891823,3.17163034200668,4.00048373204801
10.7976687083719,0.370788097456098,1.68394431352615,3.12943244844675,3.57302388932171
10.8075997083215,-0.289856127798557,1.0291871380806,3.6641056483984,3.81692453981448
10.8175307083875,-0.939853962063789,0.181901031732559,4.43467336177826,4.53682061371376
10.8274627083447,-1.52360372006893,-0.332689613699913,5.51430325984955,5.73058383731178
10.8373937082943,-1.68196298450232,-0.222460827827454,6.40416528224945,6.62509028342428
10.8473257083679,-1.21059846550226,0.518418232798576,6.56603375315666,6.69679814212486
10.8572567083174,-0.234755475819111,1.94378288269043,6.00708905339241,6.31811055014506
10.8671887082746,0.937100142762065,3.76410589993,5.07615735769272,6.3885854008153
10.8771197083406,1.97040116250515,5.32065575659275,4.3913267827034,7.17465046771293
10.8870507082902,2.67051285088062,6.24516077756882,3.88814171612263,7.82632212658382
10.8969827083638,3.07331671983004,6.66725256443024,3.13309426724911,7.98209321580233
10.9069137083134,3.56996342986822,6.71457232654095,2.35127271026373,7.95981179281124
10.916845708387,4.02159798145294,6.32162598609924,1.35956739395857,7.61476387889125
10.9267767083365,4.13651097178459,5.50199077785015,-0.00648251563310623,6.88350692323697
10.9367087082937,4.57622451245785,4.78434562861919,-1.16123480916023,6.72162630354538
10.9466397083597,4.62675731956959,3.82028887152672,-1.8040662959218,6.2654724926523
10.9565707083093,3.51373426526785,2.33953705608845,-1.57420377016068,4.50531681835101
10.9665027083829,1.77889257073402,-0.299914215803146,-0.524802807569504,1.87878293101847
10.9764337083325,0.326429438441992,-4.06365057170391,0.868973136842251,4.16832417882109
10.9863657082897,-0.695453211665154,-7.38891416609287,2.03692844331264,7.69602398688306
10.9962967083557,-2.31120115667582,-10.4059236609936,2.77246197938919,11.0141474228469
11.0062287083128,-3.26896338611841,-11.6344505667686,3.33048983573914,12.5354985603417
11.0161597083788,-2.64055610328913,-10.5656216454506,1.91159922301769,11.0570841038166
11.0260907083284,-2.27817666739225,-11.5207245612144,0.209436739683151,11.7456820615556
11.0360227082856,-1.75765139043331,-13.7240021967888,-0.89761747688055,13.8651827194075
11.0459537083516,-0.318300493061542,-15.1545936727524,-1.41117755055428,15.2234833947194
11.0558857083088,1.35559947341681,-13.8047171616554,-2.01360185354948,14.0165066357581
11.0658167083748,3.80725981324911,-9.11565191209316,-2.74079492121935,10.2519409805271
11.0757477083243,5.66594553530216,-4.41009751439095,-3.3391671037674,7.91845539498266
11.0856794583378,6.02879625678063,-1.74060383319855,-3.95061336815357,7.41508138826212
11.0956104582874,5.69539269804955,0.163612110614777,-4.64396099746227,7.35055376510414
11.105542458361,5.1896833884716,1.66007013201714,-5.26296303391457,7.57544892479282
11.1154734583106,3.79521688789129,2.53049542486668,-5.4223949700594,7.08586237043395
11.1254044583766,2.16016816109419,3.11330378115177,-4.80598266541958,6.12016799591747
11.1353364583338,0.956665584146977,3.36203965723515,-3.68792778968811,5.08127258456648
11.1452674582833,-0.250554360151291,3.00131615281105,-3.19315335810184,4.38940821807137
11.1551994583569,-1.33189749240875,2.33928737998009,-2.55737390577793,3.71300116756953
11.1651304583065,-2.39575218737125,1.39523862540722,-2.06118327856064,3.45467739057359
11.1750624583801,-3.41120392352343,0.515653084516525,-2.07595977723598,4.02639035714804
11.1849934583297,-3.85720029741526,-0.0639884197711945,-2.53623680591583,4.61677222612588
11.1949244582793,-4.38690073281527,-0.589582940340042,-2.84425000011921,5.26139374560518
11.2048564583529,-4.84508270412684,-0.974270673394203,-3.08369757413864,5.82522278403269
11.2147874583025,-5.08990767002106,-0.985751096606255,-3.68142100811005,6.35859465233896
11.2247194583761,-5.31663521111012,-0.650115655660629,-4.36947106003761,6.91241909017799
11.2346504583256,-5.38992304265499,-0.0831766426563263,-4.66823454380035,7.13096084097772
11.2445814582752,-5.35846794605255,0.57207754611969,-4.60028288125992,7.08541135257933
11.2545134583488,-5.39238588988781,0.996629841327667,-4.31798281788826,6.97968998177313
11.2644444582984,-5.29327149152756,1.14431881427765,-3.832936398983,6.63472607349972
11.274376458372,-5.03806859493256,1.18250230193138,-3.24456353992224,6.10799798836832
11.2843074583216,-4.44872422099114,1.38103749275208,-2.6224832367897,5.34563654563824
11.2942384583876,-3.54553113162518,1.72021166861057,-2.00731697380543,4.42258302618217
11.3041704583447,-2.49414416223764,2.08608890891075,-1.41656049728394,3.5467119533971
11.3141014582943,-1.33256758332253,2.45193457424641,-0.689724109768868,2.87461977800602
11.3240334583679,-0.166594190597534,2.7537777864933,0.231585992574692,2.76851544942079
11.3339644583175,1.20601775676012,2.97769340157509,1.10448553472757,3.39720843043623
11.3438964582747,2.94529719561338,3.20977231442928,1.93190104812384,4.76546488190887
11.3538274583407,5.06905883789063,3.36906742572784,3.06555658757687,6.81495487972836
11.3637584582903,7.34054541349411,3.5222855257988,4.6431529122591,9.37277820389672
11.3736904583639,9.30351184129715,3.69765989542007,6.47666140079498,11.9237227485338
11.3836214583134,9.82601669311524,3.46402737736702,8.19522590875626,13.2556334220616
11.393553458387,8.20429961800575,2.06766725599766,9.35965329766274,12.6170079636966
11.4034844583366,7.34463963389397,0.462963824272156,10.1958156609535,12.5742882043675
11.4134154582862,7.10027045845985,-0.942144901156425,10.7182105851173,12.8911409791754
11.4233474583598,6.32097109794617,-2.25365490674973,9.7654477250576,11.84894954545
11.4332784583094,6.28448330283165,-2.46414063692093,5.66129524469376,8.81005013094063
11.443210458383,5.24395724415779,-1.75557445943356,-1.16315240353346,5.65102227698813
11.4531414583325,1.32293224900961,-1.22454144358635,-5.920528627038,6.18888606342908
11.4630724582821,-2.07394833505154,-0.370124073028564,-7.95662033379078,8.2307995153564
11.4730044583557,-3.49843356370926,0.500993530154228,-8.0443835324049,8.78647473867484
11.4829354583053,-3.50555371820927,0.186898646950722,-6.64407244741917,7.51448844979067
11.4928674583789,-2.77605158507824,-0.358115646243095,-4.53353019028902,5.32800198999226
11.5027984583285,-1.81338324934244,-0.616304715871811,-2.43590589433908,3.09868162899603
11.512729458278,-0.506925822794437,-1.0007345867157,-0.543539625406265,1.2465467609567
11.5226614583516,0.983520968556404,-2.08607838392258,0.533359622955322,2.36717321015134
11.5325924583012,2.3237998598814,-4.27802996277809,0.867386202514172,4.94509301990609
11.5425244583748,2.50326786518097,-6.68525380253792,1.15971979558468,7.23214480036637
11.5524554583244,2.48556805104017,-8.00888625562191,1.37108699351549,8.49706932628118
11.5623864583904,2.18052904307842,-7.93484179437161,1.13499893724918,8.30690338194514
11.5723184583476,0.156591943502426,-6.52860221743584,-0.991535162329674,6.60532436208958
11.5822494582972,-3.2608775639534,-4.37929145872593,-4.21038264781237,6.89484142011722
11.5921814583708,-5.69421156048775,-2.8378315114975,-6.21664507627487,8.89516773240466
11.6021124583203,-8.20903995573521,-2.71498268008232,-5.42649796128273,10.2081510603933
11.6120434583863,-10.6132776224613,-3.56673079669476,-2.59677478373051,11.4937578600277
11.6219754583435,-11.8368764948845,-3.98554404973984,-0.467289886772633,12.49858257427
11.6319064582931,-11.3297474813461,-4.08852053403854,0.934862194061279,12.0811069637765
11.6418384583667,-8.29039636015892,-4.11796828150749,2.69891979396343,9.64222498338872
11.6517694583163,-3.06168251484632,-3.92742038726807,3.99757528066635,6.38585459000119
11.6617014583899,1.81877642869949,-3.88480704903603,3.74195547759533,5.69226706173723
11.6716324583394,4.45639225959778,-3.8963880443573,2.25442732393742,6.33432824556236
11.681563458289,4.74487575352192,-3.04134268283844,0.140053094029427,5.63766140345111
11.6914954583626,3.47328293502331,-1.26559299051762,-1.12413334876299,3.86381880400369
11.7014264583122,2.35282339185476,1.39022873103619,-1.85402636826038,3.3024123927914
11.7113584583858,1.45026267886162,3.41015931844711,-1.16793191760778,3.88542319175885
11.7212894583354,1.16138098955154,4.39326981246471,-1.2591426345706,4.71540725942085
11.731220458285,0.503319552540779,3.95120159804821,-1.79574541568756,4.36921345763187
11.7411524583586,-1.14125487327576,2.34660166203976,-1.42113652825356,2.97130124322661
11.7510834583081,-2.1174530813098,0.665800226926804,-1.33187936604023,2.58859037690552
11.7610154583817,-2.22306826785207,0.0464643144607544,-1.18911345630884,2.52154362802309
11.7709464583313,-2.26712396800518,0.290852200984955,-0.140437256097794,2.29001500257567
11.7808774582809,-2.40859647363424,0.647441139221191,0.15390982568264,2.49884077844128
11.7908094583545,-2.58336185574532,0.839126316905022,0.263854144513607,2.7290127267969
11.8007404583041,-2.40312538012862,0.709642065167427,0.606740717589855,2.57812679122941
11.8106724583777,-1.9025860324502,0.502736585140228,0.842237035632133,2.14054687150351
11.8206034583272,-1.24344037547708,0.416018868684769,0.747459517121315,1.50927512276707
11.8305344582768,-0.652914425432682,0.533397045135498,0.510620970726013,0.985669026825205
11.8404664583504,-0.141040688753128,0.870127084851265,0.175947396755219,0.898872130005517
11.8503974583,0.434255895763636,1.23439341723919,-0.131928680241108,1.31518457571517
11.8603294583736,0.89696434289217,1.51239343822002,-0.26290718793869,1.77791988960718
11.8702604583232,1.36463707610965,1.53170562207699,-0.25249008089304,2.06690776357938
11.8801914583892,1.61612479805946,1.63101122438908,-0.263912031948566,2.31121321768311
11.8901234583464,1.72468683511019,1.81142121613026,-0.128913271129131,2.50447801605892
11.9000544582959,1.77755999028683,1.85160562098026,0.341800745129585,2.58939966866557
11.9099854583619,1.69144175961614,1.68685739636421,1.10228113442659,2.63087187091176
11.9199174583191,1.46167936742306,1.64166952908039,1.97244096368551,2.95332165046172
11.9298484583851,1.08621883302927,1.68098796129227,2.75817489266396,3.40780290183555
11.9397804583423,1.03157258279622,1.8927805441618,3.31245497614145,3.95210300357905
11.9497114582919,1.1977251624316,2.21036387622356,4.06092430740595,4.77612397876315
11.9596434583655,1.65908224493265,2.78720397949219,4.60571494460106,5.63326460142513
11.969574458315,1.12183619700372,2.9267425185442,5.09406971812248,5.98112736161459
11.979505458381,1.51730217576027,3.3113875669241,4.39128029733896,5.70533400956891
11.9894374583382,1.23876274913549,3.69565722405911,3.37172206163406,5.15372924466312
11.9993684582878,0.682730547487736,3.62471471071243,2.67694654226303,4.55749059512601
12.0092994583538,-0.447148933187127,2.9524053633213,2.66946795344353,4.00533378787346
12.019231458311,-1.42151659727097,1.6257598400116,3.29531181693077,3.93990919495804
12.029162458377,-2.06321255475283,0.00766686916351318,4.19712554812431,4.67683308379616
12.0390944583341,-2.52903420567513,-1.24246666789055,6.07042375445366,6.69251686534514
12.0490254582837,-2.42646644175053,-1.29461096763611,6.43616124629974,6.99913769966243
12.0589564583497,-1.53413455545902,-0.237209259867668,6.81609109997749,6.99063194213605
12.0688884583069,-0.0390491679310799,1.81593702077866,6.35295887589455,6.60751379716743
12.0788194583729,1.85863455891609,4.2193917453289,5.54108701586723,7.20842801459232
12.0887514583301,3.50954151928425,6.19269137263298,4.70372363448143,8.53178317480245
12.0986824582797,4.53072878926992,7.33981392681599,3.77213237285614,9.41431646379866
12.1086134583456,4.72390529930592,7.77049118041992,2.72949927002192,9.49452372301236
12.1185454583028,4.19686066925526,7.62262971460819,1.63050397843123,8.85305972344305
12.1284764583688,3.98171295404434,7.03146159410477,0.175989789068699,8.08247874130401
12.138408458326,4.82535682976246,6.35620057225227,-1.47928738027811,8.1162580911825
12.1483394582756,5.21058776915073,5.39964111506939,-2.72724779963493,7.98399834870879
12.1582704583416,4.11203774303198,3.48827987372875,-3.09100630134344,6.21540592660894
12.1682024582988,2.42636747762561,0.0276356953382492,-2.00993155628443,3.15084873154584
12.1781334583648,0.24060970813036,-5.00528091788292,1.25959433197975,5.16694377555291
12.1880654583219,-2.76884752303362,-8.94735325813294,4.34155060529709,10.3233089942124
12.1979964583879,-4.71259064465761,-12.4993063867092,4.4898313164711,14.0925425663118
12.2079274583375,-3.69442960113287,-11.6681597650051,3.59736289769411,12.7567935703733
12.2178594582947,-2.89485151201487,-10.6410437107086,2.07833696275949,11.2219187780254
12.2277904583607,-1.74398323148489,-11.5199691009522,0.562798891961575,11.6648149660158
12.2377224583179,-0.765337963700295,-13.4691969108582,-0.714065483808518,13.509807442644
12.2476534583839,0.581482500135899,-15.5911865544319,-1.61055912584066,15.6849329221037
12.2575844583334,3.16753378272057,-14.5764595806599,-1.80606458187103,15.0255886222529
12.2675164582906,5.38129898428917,-9.54369499504566,-2.1383948841691,11.1630294095022
12.2774474583566,6.36412939667702,-4.35313861727715,-3.68446097552776,8.54559602830985
12.2873794583138,6.82148924946785,-1.22939931035042,-4.5996858805418,8.31872877575361
12.2973104583798,6.00424204409123,0.520960602164269,-4.67279537200928,7.62609592528913
12.3072414583294,4.46706079691649,1.76524926245213,-5.11469284772873,7.01646777577887
12.3171734582866,2.67365309804678,2.55361648499966,-5.36343457102776,6.51427727678619
12.3271044583526,0.70124253988266,2.85500478386879,-4.87885095924139,5.69613729628644
12.3370354583021,-0.363629862964153,2.82730359971523,-3.57788786888123,4.5746206317562
12.3469674583757,-0.99110012948513,2.45648546218872,-1.99687910914421,3.31724682065513
12.3568984583253,-2.01590594887733,1.71468955814838,-0.56421040982008,2.70598789023371
12.3668304582825,-3.40046521961689,0.689953905344009,0.531455769538879,3.51022012647352
12.3767614583485,-4.53524196267128,-0.286517075300217,0.369670913815498,4.55929471288424
12.3866924582981,-4.90197757422924,-0.900699836611748,-1.35394208014011,5.16466876869107
12.3966244583717,-4.64641039609909,-1.15770133674145,-3.3074336796999,5.81966661413554
12.4065554583212,-4.58980116248131,-1.39802599310875,-4.61020209789276,6.65392476452336
12.4164874582784,-4.82452827930451,-1.38984983146191,-5.52888153791428,7.46835234386494
12.4264184583444,-5.08134383797646,-1.01348970293999,-5.89991075992584,7.85214388258362
12.436349458294,-5.31208023011684,-0.347501780390739,-5.72016325771809,7.81404002763749
12.4462814583676,-5.57896235525608,0.417719238996506,-5.51526044905186,7.85604277896117
12.4562124583172,-5.81233291804791,0.937037358283997,-5.05272990345955,7.75830731785984
12.4661434583832,-5.78556728839874,1.23181304097176,-4.24517796635628,7.2809125926998
12.4760754583403,-5.42696339964867,1.43915823161602,-3.31510230302811,6.5202002604442
12.4860064582899,-4.69179589927197,1.75035815834999,-2.53081526756287,5.61085807710879
12.4959384583635,-3.66251345157623,2.1215060788393,-1.95412806898356,4.66191048128537
12.5058694583131,-2.39032275527716,2.47671507418156,-1.54396460205317,3.77247758448836
12.5158004583791,-0.845794189274311,2.79780790507793,-1.20001558989286,3.15960983355741
12.5257324583363,0.812184393703938,3.05195128619671,-0.626466299593449,3.21970653433202
12.5356634582859,2.54657760679722,3.27205860972404,0.409665284156799,4.1664434111066
12.5455954583595,4.5275829872489,3.44688334107399,2.00197992771864,6.03224138313342
12.555526458309,6.41272209763527,3.54851964354515,3.92179624289274,8.31236922500999
12.565457458375,7.89096253395081,3.6976914703846,5.88608034074307,10.5159951359846
12.5753894583322,8.66634309053421,3.79473946273327,7.87705317735672,12.310707409072
12.5853204582818,7.37704431831837,3.04070124328136,9.77422439575195,12.6175318293174
12.5952524583554,5.46167714953423,1.22703645050526,11.2410194921494,12.5577089853004
12.605183458305,4.78930991470814,-0.72913025021553,11.877809343338,12.8277618927695
12.615114458371,3.77228030741215,-2.58961311399937,11.3686197710037,12.2548647603939
12.6250464583281,2.85586373984814,-3.41117147147655,9.45409109294415,10.4485351558044
12.6349774582777,3.0849769449234,-2.52245901167393,5.03174190759659,6.41859087658247
12.6449084583437,3.71815146267414,-0.333134586811066,-2.76998889952898,4.64849087939617
12.6548404583009,2.31147685289383,1.14924684762955,-8.13492181956768,8.53467319636369
12.6647714583669,-0.259110590815544,2.04066481411457,-9.66899264037609,9.88538668244622
12.6747034583241,-1.06458442747593,2.70411855340004,-8.35383748054504,8.84489670970926
12.6846344583901,-0.64023473829031,1.95829157888889,-5.57928804516792,5.94754247727702
12.6945654583396,0.313915373682976,0.877543108463287,-3.33968809068203,3.46729596545915
12.7044974582968,1.68526636898518,-0.624912986755371,-1.26806460857391,2.19968789308068
12.7144284583628,3.22564575076103,-3.44867960572243,0.322169303297997,4.73307242626986
12.7243594583124,4.57941182971001,-7.34487644612789,1.98636756956577,8.8805337022273
12.734291458386,4.78104662954807,-11.3128887891769,0.321599784493446,12.2858978528875
12.7442224583356,2.38461967349052,-14.356943410635,-4.54393034040928,15.2464926465684
12.7541544582928,-0.86492189347744,-13.0628294563293,-6.72218481659889,14.7164320402561
12.7640854583588,-4.47829885303974,-7.52481573700905,-5.81933145046234,10.5139255762734
12.7740164583083,-6.52390748798847,-2.72903412401676,-3.24194018661976,7.77940693983161
12.7839484583819,-8.70476222097874,-0.402811762690544,0.508542870283127,8.72890362478911
12.7938794583315,-12.2422171783447,-0.520966449379921,4.70085703700781,13.1240749908527
12.8038114582887,-13.6272331166267,-2.55355508923531,5.14034399807453,14.7866582576047
12.8137424583547,-12.7367887115479,-4.3873459982872,2.46893067598343,13.6956274144017
12.8236734583043,-9.43139044761658,-5.93710080564022,-0.188500199317932,11.1461125096093
12.8336054583779,-2.50417359888554,-7.41077632069588,-1.65585312008858,7.99577017203778
12.8435364583274,3.60270286738873,-8.32068493723869,1.51749805748463,9.1932619961552
12.853467458277,5.85727871060371,-7.79085586309433,2.72240893632174,10.1201116293135
12.8633994583506,4.16591749638319,-6.29874524652958,0.168876651227474,7.55364677428594
12.8733304583002,1.58920684844255,-3.52796609580517,-1.92857602894306,4.32337006046224
12.8832624583738,1.14013483911753,-0.0604029071331024,-1.53951165497303,1.91667735896198
12.8931934583234,1.55784969270229,2.78539017319679,-0.988008121848106,3.34087625194824
12.9031244583894,1.66426784813404,4.42856945335865,-1.63923007071018,5.00690424297036
12.9130564583465,0.738061287403107,4.48450684189796,-2.1028002512455,5.0077245307256
12.9229874582961,-0.653184566795826,3.59641067862511,-2.24679027557373,4.29055781805136
12.9329184583621,-1.79203915804625,2.93398078680038,-1.65034270405769,3.81356508297962
12.9428504583193,-2.62384739220142,2.61368902444839,-1.04906387060881,3.84921816200393
12.9527814583853,-3.10704258263111,2.62537176132202,-0.200194630622864,4.07263653983023
12.9627134583425,-3.46473898351192,2.8080750310421,0.00473770648241043,4.4597896867108
12.9726444582921,-3.66031957626343,2.74240144371986,0.395826678872108,4.59079337790332
12.982575458358,-3.36912414371967,2.36779898822308,0.846188876330853,4.20398681715953
12.9925074583152,-2.55289376914501,1.8940827190876,1.05398284077644,3.34898428959243
13.0024384583812,-1.81200462207198,1.42660016655922,1.47551621854305,2.73782703924492
13.0123694583308,-1.20319735229015,1.05960669279099,1.25435522675514,2.03564664096042
13.022301458288,-0.57542770832777,0.665852851867676,1.38219173312187,1.63857592285561
13.032232458354,-0.0554668338596821,0.495646836161613,1.71985352665186,1.79070894033404
13.0421644583112,0.590428009182215,0.761439625024796,1.80426042348146,2.04542201325944
13.0520954583772,1.55419781416655,1.17049855291843,1.83552285432816,2.67483492139332
13.0620264583267,2.71828109443188,1.48389937162399,1.73157924056053,3.54815108469073
13.0719584582839,3.51566179990768,1.91679213523865,1.39713721632957,4.24098601533842
13.0818894583499,3.83023557007313,2.37313574194908,0.950724228322506,4.60503575776443
13.09182099998,3.8018356436491,2.4663333427906,0.462436990141869,4.55528290986772
13.1017530000536,3.64073900520802,2.25769182443619,0.493109436929226,4.31222793865975
13.1116840000032,3.39283460319042,1.77768102765083,1.09787584215403,3.98457122479464
13.1216159999603,2.96960757941008,1.85510050177574,1.71848235458136,3.90040365223727
13.1315470000263,2.78921191334724,2.00162120103836,2.49027213603258,4.24118448567198
13.1414779999759,2.68520164132118,2.17338959276676,2.98517725288868,4.5656558573402
13.1514100000495,2.28680993512273,2.49573372781277,3.30362684994936,4.72991933157687
13.1613409999991,1.41765334188938,2.73141335606575,3.12495845139027,4.38585513239778
13.1712719999487,0.487479591518641,2.54676003992558,2.72541177392006,3.76184693874312
13.1812040000223,-0.321970644146204,1.97089934527874,2.68809250473976,3.3487237328496
13.1911349999718,-1.26808302730322,0.837683224081993,3.1377229231596,3.48640974220818
13.2010670000454,-2.16362927421927,-0.293615010380745,3.89570392012596,4.46587174512035
13.210997999995,-2.90262977063656,-0.998274078369141,4.82586290627718,5.71933243579278
13.2209289999446,-3.53907755970955,-1.11974413633347,5.90308053553104,6.97318124771315
13.2308610000182,-3.99935108006001,-0.415238265395165,6.2459080517292,7.42822988802051
13.2407919999678,-3.60809136897326,0.426714010834694,5.70412200629711,6.76294433191823
13.2507230000338,-2.32016771569848,1.70797344624996,4.91210787534714,5.69466024457226
13.2606549999909,-0.763798099458218,3.15521428406239,4.15670257687569,5.27417681043139
13.2705860000569,0.455019358545542,4.18961772322655,3.69062101721764,5.60184101667958
13.2805180000141,1.36752282321453,4.72806676268578,3.43895100831985,6.00425832406058
13.2904489999637,2.43539806365967,4.99760703206062,2.97962882995605,6.30756908322726
13.3003800000297,3.75562626779079,5.13501718461514,2.08370821505785,6.69439841024663
13.3103119999869,4.50869735777378,5.01487152099609,1.06055598825216,6.82657067936101
13.3202430000529,4.89702088952065,4.72641141593456,-0.227590297758579,6.80966781926343
13.3301740000024,5.01996386110783,4.20433107197285,-0.951803039610386,6.61682446161272
13.3401059999596,4.36505114972591,3.53144460439682,-1.18737595617771,5.73887046333648
13.3500370000256,3.09261691689491,2.49389945626259,-1.34610739588738,4.1947370613513
13.3599679999752,1.92547875881195,0.857550308704376,-0.878642385005951,2.28360973533656
13.3699000000488,0.963867599666119,-1.52058304846287,-0.0882441321015358,1.8024984282404
13.3798309999984,-1.00154764205217,-5.30761471152306,1.19612134426832,5.53214044249516
13.3897629999556,-2.04066744536161,-8.35314283132553,2.81609916508198,9.04818950346749
13.3996940000216,-1.54398682147265,-7.26526368141174,2.2283271074295,7.75457241651833
13.4096249999711,-2.66455658465624,-8.17146691739559,1.22667596966028,8.68201977131287
13.4195570000447,-2.50936563402414,-10.3456727814674,1.03913939148188,10.6962456900235
13.4294879999943,-2.29981925904751,-13.7718207263947,0.686761325597763,13.9794082801303
13.4394189999439,-0.625054489374161,-16.8821547067165,0.52386842250824,16.90184246703
13.4493510000175,0.982453851699829,-16.3418918609619,0.384999974370003,16.3759234898786
13.4592819999671,2.73976405709982,-10.9686000537872,-1.13694606006146,11.3626203215634
13.4692130000331,3.80379504561424,-5.89050843715668,-2.91359271526337,7.59315276467484
13.4791449999902,3.97701354682446,-2.69595116257668,-4.33482513785362,6.4711280622772
13.4890760000562,3.68215132534504,0.0549059396982193,-5.12191357433796,6.30834777956493
13.4990080000134,3.33718255877495,2.19545873880386,-5.99739553928375,7.20594058808443
13.508938999963,2.83730175375938,3.61376404523849,-6.35190462291241,7.83940457911955
13.518870000029,1.88178310096264,4.25963111400604,-5.22369371831417,6.99803836294371
13.5288019999862,1.06302672922611,4.39767744362354,-4.20311894416809,6.17541914237642
13.5387330000522,0.484637698531151,4.12633038461208,-3.62439311385155,5.5134110662588
13.5486640000017,-0.170551586151123,3.34090255737305,-2.79943226158619,4.36205670855045
13.5585959999589,-0.97806960940361,2.35393173158169,-2.33538904130459,3.45711682360195
13.5685270000249,-2.05064016401768,1.34903334259987,-2.31877359330654,3.37664434294528
13.5784579999745,-2.89013134717941,0.445920944809914,-2.47600054442883,3.83174678038373
13.5883900000481,-3.51805974304676,-0.384804092645645,-2.46721978068352,4.31416179478229
13.5983209999977,-4.22645635128021,-1.07308569431305,-2.52505283653736,5.03888261660475
13.6082529999549,-4.84319200694561,-1.50754258811474,-2.79489657640457,5.79142817825789
13.6181840000208,-5.1419648462534,-1.51241858124733,-3.17732143700123,6.23077715530217
13.6281149999704,-5.2663123190403,-1.13245422899723,-3.50399426579475,6.42607764014502
13.638047000044,-5.47196415603161,-0.635197069644928,-3.7744279897213,6.67773716851538
13.6479779999936,-5.53114791870117,-0.220526568889618,-3.68649931490421,6.65075232322839
13.6579089999432,-5.44551193714142,-0.0136006236076355,-3.47043884932995,6.45737803148079
13.6678410000168,-5.17908998787403,0.14181544482708,-3.15887668758631,6.06807932135571
13.6777719999664,-4.53753933370113,0.453942739963532,-2.77365247249603,5.33745962553665
13.6877030000323,-3.73557499587536,0.892312005758286,-2.32801979541779,4.49114878770306
13.6976349999895,-2.80547302007675,1.39082982480526,-1.94365833699703,3.68549782240127
13.7075660000555,-1.79901634812355,1.90453987956047,-1.59786452829838,3.06869728458938
13.7174970000051,-0.726079757809639,2.3160587310791,-1.2274597889185,2.71992231394951
13.7274289999623,0.581793279647827,2.61621034383774,-0.707717746496201,2.77198564068298
13.7373600000283,2.36960402369499,2.90427751600742,0.366040669977665,3.76614350379476
