Time (s),Linear Acceleration x (m/s^2),Linear Acceleration y (m/s^2),Linear Acceleration z (m/s^2),Absolute acceleration (m/s^2)
0.005644333,0.117644517,0.556823915,-0.697094525,0.899907707
0.015636333,-0.019590804,0.409056589,-0.630501171,0.751826322
0.025628333,-0.276638497,0.131111532,-0.473559564,0.563895161
0.035620333,-0.555781064,-0.027721649,-0.292816281,0.628810349
0.045612333,-0.691764788,-0.039348253,-0.154682828,0.709939141
0.055604708,-0.678920794,0.027861398,0.015101019,0.67966002
0.065596708,-0.733160444,0.122049517,0.355256358,0.823788444
0.075588708,-0.890743198,0.227244727,0.65595527,1.129309934
0.085580708,-0.862861919,0.255368958,0.713803529,1.148590211
0.095572708,-0.771638923,0.231936826,0.762872193,1.109592403
0.105564708,-0.67166323,0.156323556,0.712698405,0.991719499
0.115556708,-0.573930236,0.124766718,0.536867952,0.795732272
0.125548708,-0.513130011,0.114670331,0.306275402,0.608486906
0.135540708,-0.407527542,0.134507887,0.142408352,0.452162812
0.145532708,-0.351622313,0.131206549,0.081068721,0.383960346
0.155524708,-0.363787738,0.164679812,0.113112633,0.415036657
0.165516708,-0.529284698,0.18162095,0.181181824,0.588179662
0.175508708,-0.655231969,0.204996364,0.202820615,0.715883122
0.185500708,-0.679623922,0.221172101,0.249796561,0.757102434
0.195492708,-0.720616997,0.229914566,0.280767508,0.80683329
0.205484708,-0.697978039,0.200499563,0.247252437,0.76714222
0.215475708,-0.655747694,0.154561206,0.218677095,0.708317638
0.225467708,-0.653021429,0.170620876,0.145020888,0.690347397
0.235459708,-0.62930483,0.173413506,0.044865686,0.654300958
0.245451708,-0.558709349,0.232863024,0.081240045,0.610721925
0.255443708,-0.43859146,0.270571718,0.23777644,0.567546614
0.265435708,-0.356669045,0.262554016,0.460847132,0.639161559
0.275427708,-0.363580746,0.177456271,0.477989414,0.626223257
0.285419708,-0.403402039,0.084025366,0.393449201,0.569733044
0.295411708,-0.389902865,0.051638808,0.169419565,0.428245023
0.305403708,-0.358918761,0.090526885,-0.123142946,0.390105088
0.315395708,-0.310055627,0.100363364,-0.439310083,0.546992363
0.325387708,-0.282715508,0.095564846,-0.819857402,0.872483157
0.335379708,-0.25210855,0.093932011,-1.106690812,1.138923394
0.345371708,-0.206557571,0.074369566,-1.263731822,1.282659339
0.355363708,-0.178058826,0.009989968,-1.333634115,1.345505369
0.365355708,-0.095956317,-0.017267413,-1.484688161,1.487885988
0.375347708,0.084039107,-0.059855315,-1.569544709,1.572932237
0.385339708,0.37287168,-0.087700633,-1.620744098,1.665393684
0.395331708,0.709420163,-0.136713164,-1.695952156,1.843426476
0.405323708,0.994890002,-0.233139598,-1.700389023,1.983805186
0.415315708,1.277215501,-0.326923674,-1.628665906,2.095402386
0.425307708,1.470922207,-0.413800143,-1.564607905,2.186970643
0.435298708,1.401756371,-0.415156989,-1.224057294,1.906722976
0.445290708,1.41285117,-0.438997257,-0.817795674,1.690460524
0.455282708,1.237947647,-0.50893668,-0.710642524,1.515435158
0.465274708,1.020687187,-0.773976348,-0.54007515,1.39015211
0.475266708,0.926030267,-1.030222972,-0.205764104,1.400439322
0.485258708,0.908789021,-1.175282452,0.157515219,1.493987072
0.495250708,0.993347799,-1.217558406,0.324432176,1.604507575
0.505242708,1.159921671,-1.234449843,0.397873204,1.73999649
0.515234708,1.266846049,-1.280129169,0.599462396,1.898152987
0.525226708,1.219127945,-1.377787026,0.610104913,1.938246125
0.535218708,0.990936919,-1.541747338,0.373380972,1.870388778
0.545210708,0.64551799,-1.720984671,0.074196489,1.839561587
0.555202708,0.17715492,-1.978469735,-0.119383771,1.989969559
0.565194708,-0.131350171,-2.223123085,0.12723015,2.230631442
0.575186708,-0.213927474,-2.321729068,0.323141111,2.353850252
0.585178708,-0.204154804,-2.210538123,0.262796091,2.235446211
0.595170708,-0.215090924,-1.978336419,0.06560576,1.991075892
0.605162708,-0.242111858,-1.817059101,-0.035532945,1.83346244
0.615154708,-0.222397166,-1.816695405,-0.046461391,1.830847168
0.625146708,-0.078531907,-1.831504648,-0.05391893,1.833980312
0.635138708,0.142717889,-1.789644431,-0.174355785,1.803772581
0.645129708,0.298049539,-1.796419015,-0.30883999,1.846980494
0.655121708,0.367626727,-1.82310483,-0.411142291,1.904704338
0.665113708,0.300673075,-1.809357003,-0.482305244,1.896521925
0.675105708,0.175195299,-1.779126167,-0.380480077,1.82777143
0.685097708,0.073931391,-1.716471789,-0.04590766,1.718676458
0.695089708,0.041917995,-1.664834443,0.40926358,1.714913269
0.705081708,0.11838017,-1.559823859,0.747480567,1.733721873
0.715073708,0.219524137,-1.356734126,0.951073599,1.67136451
0.725065708,0.479478189,-1.01473516,1.277846416,1.700728738
0.735057708,1.039594305,-0.579239947,2.014809596,2.340028406
0.745049708,1.689681748,-0.165504854,2.81443037,3.286857857
0.755041708,2.015362743,0.137607642,3.168159435,3.757373691
0.765033708,2.017059751,0.268040459,3.301609268,3.878272745
0.775025708,1.882995813,0.282876453,3.525690944,4.007017464
0.785017708,1.786083477,0.237314656,3.789996786,4.196485204
0.795009708,1.779343683,0.20960397,3.935560881,4.324192088
0.805001708,1.755688626,0.187377095,4.125103054,4.487095713
0.814993708,1.659772216,0.101442175,4.526090485,4.821890647
0.824985708,1.340591133,-0.10311214,4.94763088,5.127072071
0.834977708,0.87229991,-0.247776933,5.154117699,5.233280978
0.844969708,0.434752397,-0.213550256,5.013764643,5.037107231
0.854961708,0.007674471,-0.060519998,4.552647954,4.553056661
0.864952708,-0.376704091,0.076710792,3.735549268,3.755278798
0.874944708,-0.841586021,0.064062972,2.620550147,2.753117173
0.884936708,-1.358097696,-0.096292971,1.19470661,1.811360145
0.894928708,-1.789887237,-0.428909348,-0.557535521,1.923149865
0.904920708,-1.904499241,-0.587669731,-2.363478481,3.091682972
0.914912708,-1.54094817,-0.47176403,-3.624344582,3.96647907
0.924904708,-1.129902212,-0.347252543,-4.193621897,4.357032011
0.934896708,-0.977936878,-0.347780985,-4.467759247,4.58674011
0.944888708,-0.964770702,-0.409796847,-4.120093744,4.251339604
0.954880708,-3.356619873,-0.949890562,-4.643489127,5.807855054
0.964872708,-9.299355056,-1.534779942,-6.453426905,11.42279619
0.974864708,-4.16660396,0.769444902,-4.291894881,6.031002875
0.984856708,-1.670015953,0.743918882,2.830709603,3.369760443
0.994848708,-0.408973266,-1.28392562,-0.724682858,1.529996527
1.004840708,0.853293536,-2.145089946,-4.901311576,5.417783302
1.014832708,1.712565411,-3.274453922,-5.167758669,6.35300389
1.024824708,2.362234193,-2.612573083,-3.201512538,4.759765858
1.034816708,1.924459443,-2.383869476,-3.66329464,4.775573834
1.044808708,1.298676829,-1.996059768,-3.945995822,4.608871785
1.054800458,0.758820949,-1.592393581,-4.539451373,4.870127855
1.064791458,0.515302252,-0.911135362,-5.055990311,5.163210443
1.074783458,0.393958786,-0.453705708,-5.499434375,5.532163306
1.084775458,0.264075023,-0.122675827,-6.116199852,6.12312711
1.094767458,0.254810548,0.343330888,-7.128717747,7.141527934
1.104759458,0.302297395,0.699736882,-7.618524384,7.656561187
1.114751458,0.365677339,0.878258515,-7.744183972,7.802399845
1.124743458,0.263367199,0.999656726,-6.57189968,6.652709317
1.134735458,-0.245027736,1.410657441,-3.273841426,3.573238124
1.144727458,0.579585919,2.088385841,-1.124212579,2.441542378
1.154719458,0.480983079,1.798420517,0.070123318,1.862948834
1.164711458,1.500170565,1.498704083,2.142580613,3.014511127
1.174703458,2.096071568,1.491488765,-0.831479913,2.703592721
1.184695458,1.946972246,1.010626468,-1.4388992,2.623451485
1.194687458,1.205932607,0.775362723,1.036620119,1.769192492
1.204679458,0.793180212,0.666640033,3.449094173,3.601360076
1.214671458,1.304463818,0.858604854,0.529981102,1.649153758
1.224663458,1.162731477,0.6459539,0.603663036,1.46068819
1.234655458,0.689901573,0.349419375,2.46886928,2.587155504
1.244647458,0.810647745,-0.134420471,4.374895522,4.451396349
1.254639458,1.540709311,-0.290806008,4.770450305,5.021508681
1.264631458,2.186712035,0.044202904,6.725100823,7.071820452
1.274622458,3.201146502,0.509356218,9.425756655,9.967530848
1.284614458,4.665101021,0.33519193,11.39389378,12.31650667
1.294606458,5.87599214,-0.558985046,13.05639518,14.32861483
1.304598458,6.227187606,-1.829062558,14.0982544,15.52044176
1.314590458,5.547168705,-3.381848854,14.28355267,15.69164934
1.324582458,4.383711369,-4.8273978,13.50192962,14.99409212
1.334574458,2.787833432,-5.72856863,11.98134716,13.56986343
1.344566458,0.953277123,-6.137359171,10.04714669,11.81190381
1.354558458,-0.651410814,-6.023856529,8.264567454,10.2476465
1.364550458,-1.78459536,-5.554292952,6.386785603,8.65020122
1.374542458,-2.24414441,-4.489271738,4.337547017,6.633555532
1.384534458,-2.36728531,-3.027667215,2.431517267,4.547865953
1.394526458,-2.24175056,-1.576573062,1.038238043,2.930693848
1.404518458,-1.729396183,-0.092455589,0.019629103,1.731977048
1.414510458,-1.054127559,1.202678997,-0.624861531,1.716995519
1.424502458,-0.80400297,2.012072514,-1.148373274,2.45226788
1.434494458,-1.14251641,2.206571518,-1.528729974,2.917416142
1.444486458,-1.733275518,1.984847878,-2.350860189,3.531346592
1.454478458,-2.097099216,1.792008022,-3.419309626,4.393267143
1.464469458,-2.23136152,1.793952659,-4.369267577,5.223766796
1.474461458,-2.258821507,2.020194589,-5.102177467,5.934279711
1.484453458,-2.063558418,2.217172228,-5.442267317,6.228354484
1.494445458,-1.628337585,2.276288017,-5.410897005,6.091861524
1.504437458,-1.293883135,2.289932056,-5.149756846,5.782552893
1.514429458,-1.099541568,2.145147834,-4.992608832,5.544077366
1.524421458,-0.960290419,1.829871667,-5.050058895,5.456526629
1.534413458,-0.894580725,1.614245941,-5.140363294,5.461629741
1.544405458,-0.732691643,1.409975948,-5.212078809,5.448911334
1.554397458,-0.253242471,1.214965605,-5.057411184,5.207463976
1.564389458,0.231862566,1.166687192,-4.522147708,4.675974673
1.574381458,0.341359865,1.150957743,-3.967901831,4.145536783
1.584373458,0.22724385,1.014210665,-3.731098952,3.873159231
1.594365458,0.181337653,0.808247975,-3.515550118,3.611819592
1.604357458,0.386160647,0.586372892,-3.075321438,3.154450056
1.614349458,0.629975214,0.402048847,-2.401977133,2.51555286
1.624341458,0.566614346,0.169472738,-2.110013376,2.191330481
1.634333458,0.717154275,0.053148924,-2.132661982,2.250640396
1.644325458,0.961333855,0.273716333,-1.931347609,2.1746694
1.654317458,1.353662876,1.394948457,-2.990582419,3.566772713
1.664308458,2.306121096,4.52732951,-5.609881262,7.568730064
1.674300458,3.232581133,7.609219126,-5.526303501,9.944336421
1.684292458,2.666722978,7.432693439,-2.541126248,8.29540028
1.694284458,1.094280097,4.829832581,0.493464655,4.976769942
1.704276458,0.49174572,1.057424731,3.405519553,3.599656142
1.714268458,1.173504899,-2.550836134,7.124177384,7.657531073
1.724260458,2.15535678,-4.339271945,11.34353755,12.3349377
1.734252458,2.744435105,-4.924583495,14.11817002,15.20217653
1.744244458,2.777261374,-5.20725778,14.72764168,15.86606895
1.754236458,2.371223118,-5.186353399,14.11346535,15.22205193
1.764228458,1.739526191,-4.567280319,12.8002427,13.70154057
1.774220458,0.759982791,-3.483239281,11.30549089,11.85430951
1.784212458,-0.445830898,-2.560800959,9.037364126,9.403744844
1.794204458,-1.501326998,-1.895674331,6.284991426,6.734142941
1.804196458,-2.286407793,-1.435877505,3.997722631,4.824022288
1.814188458,-2.617036555,-0.965185854,2.393808573,3.675701776
1.824180458,-2.618325866,-0.479232825,1.171007845,2.908015443
1.834172458,-2.282048255,0.034554998,0.116364269,2.285274366
1.844164458,-1.889865122,0.508249632,-0.861266799,2.138150689
1.854155458,-1.666355304,0.693473418,-1.789926267,2.541944417
1.864147458,-1.855291267,0.72254402,-2.855869002,3.481402491
1.874139458,-2.14019378,0.563383906,-4.160102148,4.71214184
1.884131458,-2.243936396,0.260466706,-6.024824828,6.434408105
1.894123458,-2.478639393,0.145895559,-7.264166159,7.676786355
1.904115458,-2.56886193,-0.062383779,-7.295626518,7.734927902
1.914107458,-2.014908122,0.002547723,-6.643816924,6.942633834
1.924099458,-0.562959983,0.836090954,-5.858359276,5.944438193
1.934091458,0.023712798,1.573321571,-5.715107755,5.92776178
1.944083458,-0.111448223,1.588589675,-5.916911539,6.1274693
1.954075458,-0.167306381,0.9627912,-6.28940315,6.364868444
1.964067458,-0.199512261,0.50274828,-6.876377648,6.897617743
1.974059458,-0.341941955,0.470665777,-7.154249614,7.177864454
1.984051458,-0.496992573,0.697333091,-7.135788785,7.186985226
1.994043458,-0.624394046,1.090259698,-6.77004837,6.885643693
2.004035458,-0.930827908,1.501312965,-6.451676833,6.689134112
2.014027458,-1.277774495,1.806218071,-6.577056339,6.939221964
2.024019458,-1.690740532,2.225008813,-6.562464613,7.132685999
2.034011458,-2.210468249,2.656520464,-5.955596718,6.885666498
2.044002458,-3.059338074,4.399811093,4.128196231,6.76460577
2.053994208,-2.5547985,4.977759243,6.522604144,8.593570112
2.063986208,-1.057317216,2.308113681,3.937367086,4.684887195
2.073978208,-0.446844805,-0.347763589,4.552661403,4.58773753
2.083970208,-1.009435536,-2.522654893,4.916306176,5.617189175
2.093962208,-1.0911609,-2.327905482,5.987383937,6.51602198
2.103954208,0.041390101,2.707080753,-3.405493825,4.350561749
2.113946208,3.771487717,9.217610396,-3.375617477,10.51585728
2.123938208,6.181769943,7.037541529,7.909953121,12.26004196
2.133930208,3.411781921,2.940761803,7.036246371,8.354465802
2.143922208,2.277464477,-0.892829484,6.978306895,7.394643741
2.153914208,1.912680081,-4.427420475,9.393617435,10.55937714
2.163906208,0.850775725,-6.060291114,11.48872158,13.01697627
2.173898208,-0.311441417,-6.681378853,11.93158969,13.67847403
2.183890208,-1.205387281,-6.551736726,10.16519028,12.15357174
2.193882208,-1.958445361,-5.322362559,7.082884347,9.073604693
2.203874208,-2.266278607,-3.26908647,3.664209729,5.40826941
2.213866208,-2.265133283,-1.349607832,0.510736746,2.685725621
2.223857208,-2.044744855,0.024582426,-2.15845288,2.973298615
2.233849208,-1.541897319,1.077044844,-4.31249813,4.704796813
2.243841208,-0.782773191,1.830208905,-5.816776217,6.147949582
2.253833208,-0.180166894,2.249680262,-6.468080027,6.850516815
2.263825208,0.126367174,2.335018182,-6.42278691,6.835237396
2.273817208,0.422018258,2.181213898,-5.94873618,6.350059497
2.283809208,0.616027412,1.759148278,-5.146359029,5.473490996
2.293801208,0.648857335,1.360767535,-4.46950581,4.716904314
2.303793208,0.465189713,0.881629874,-4.081499782,4.201465599
2.313785208,0.153696402,0.327462349,-3.935353889,3.951944383
2.323777208,-0.222021702,0.056008725,-4.126036854,4.132385599
2.333769208,-0.788332578,-0.062990154,-4.680887334,4.747224689
2.343761208,-1.133764151,0.032887811,-5.234713966,5.356186429
2.353753208,-1.072228346,0.245308677,-5.349936858,5.461838002
2.363745208,-0.608289353,0.453106442,-5.052777851,5.109391881
2.373737208,-0.052080273,0.524455922,-4.929136721,4.957232614
2.383729208,0.299329933,0.429475212,-5.128387027,5.155036456
2.393721208,0.709334794,0.280249152,-5.1248939,5.181335052
2.403713208,1.023449265,0.281139921,-4.522884457,4.645747719
2.413704208,0.946827351,0.598462376,-2.794523524,3.010647933
2.423696208,0.730523934,1.182482129,-0.322134805,1.426779603
2.433688208,0.215003289,2.373726165,2.30401639,3.315010384
2.443680208,-1.028966698,3.676132494,3.937393983,5.48414022
2.453672208,-2.584604974,4.787967979,3.304282615,6.365775981
2.463664208,-3.391449398,6.128085487,1.193707906,7.104948931
2.473656208,-2.527255775,8.089310614,0.147808256,8.476191081
2.483648208,0.273136307,9.413769279,1.638411461,9.559186555
2.493640208,2.968395159,8.036728358,4.179831823,9.532647407
2.503632208,4.114602624,3.935310328,6.598074741,8.714999278
2.513624208,3.862272172,-0.792147301,9.134096954,9.94868689
2.523616208,3.072889581,-4.743368926,11.38817052,12.71348209
2.533608208,1.696138389,-7.123609035,11.88071541,13.95614882
2.543600208,-0.278148394,-7.714739149,10.44673021,12.98956268
2.553592208,-2.300969406,-7.057291669,7.073329997,10.25338106
2.563584208,-3.487061899,-5.156453662,2.070238277,6.560068717
2.573576208,-3.315867119,-2.513570367,-2.847019241,5.041679214
2.583568208,-1.810651138,0.392110664,-6.564976577,6.821372719
2.593560208,0.163191623,2.666018973,-7.931303059,8.368981831
2.603551208,1.71900188,3.568667687,-7.214209303,8.230138054
2.613543208,2.647348229,2.880426139,-5.232807189,6.533573177
2.623535208,2.964531904,1.323891192,-2.910427617,4.360243825
2.633527208,2.56049398,-0.03309831,-1.384587337,2.911066302
2.643519208,1.694213194,-0.905004703,-0.590601525,2.00952781
2.653511208,0.872324322,-1.172463217,-0.443016633,1.527050574
2.663503208,0.166400063,-0.991078349,-0.773318828,1.268048613
2.673495208,-0.327286786,-0.583723738,-1.40717747,1.558203605
2.683487208,-0.33452257,0.000154366,-2.077404624,2.104166188
2.693479208,0.093833047,0.657437247,-2.748102479,2.827206326
2.703471208,0.289697961,1.360702485,-3.779325033,4.02724892
2.713463208,0.425452913,2.031947785,-4.82965044,5.256933075
2.723455208,0.617178875,2.323213238,-5.330743958,5.847654287
2.733447208,0.565997173,2.366184426,-5.756874416,6.249862765
2.743439208,0.270564409,2.245052045,-6.461407185,6.845673567
2.753431208,0.131738207,2.098799586,-7.037979485,7.345438714
2.763423208,0.515866654,2.054856737,-7.49594511,7.789592268
2.773415208,1.080278354,2.067102415,-7.348314609,7.709581137
2.783406208,1.838557121,1.85840491,-6.204361246,6.732611645
2.793398208,1.975066364,1.133856245,-3.419120176,4.108150424
2.803390208,0.904794642,0.550019144,0.721935836,1.281548186
2.813382208,-1.277651119,0.693402593,-0.885867789,1.702339942
2.823374208,-2.627996284,2.475209124,-2.00372386,4.128914383
2.833366208,-0.97836811,3.899098814,2.859170925,4.933055249
2.843358208,0.276621686,4.419988957,7.840579416,9.004860216
2.853350208,0.399501946,4.09229345,8.47210268,9.417164717
2.863342208,1.373460671,2.509045499,8.916506857,9.364069524
2.873334208,2.601658378,0.376663087,11.2520602,11.55505778
2.883326208,3.189774837,-1.320524658,13.40142768,13.83895635
2.893318208,3.270779531,-2.550887005,14.49323382,15.07510696
2.903310208,2.976511972,-3.630253486,15.39843192,16.0981387
2.913302208,2.160542675,-4.532934067,15.52289108,16.31488839
2.923294208,0.952954283,-4.876076163,13.82640332,14.69195934
2.933286208,-0.015560099,-4.191689684,10.8469499,11.62870701
2.943278208,-0.40592292,-2.666985518,7.509962055,7.979794185
2.953270208,-0.261725429,-0.951202092,4.300400825,4.412112065
2.963261208,0.153156997,0.494015975,1.722725387,1.798691637
2.973253208,0.556508677,1.359833588,0.06197113,1.470608621
2.983245208,0.757081695,1.603972822,-1.060541663,2.066555135
2.993237208,0.752027508,1.465782651,-2.155378999,2.712880901
3.003229208,0.560635276,1.096217279,-3.18786806,3.417383064
3.013221208,0.407258168,0.704989363,-4.024044456,4.105581933
3.023213208,0.288939284,0.545575553,-4.774619955,4.814367488
3.033205208,0.320603529,0.587624415,-5.496621864,5.537232251
3.043197208,0.512523362,0.853283011,-6.371817316,6.44909513
3.053189208,0.536493767,1.155979332,-7.549651201,7.656457864
3.063181583,0.262951883,1.068683179,-8.773650023,8.842407034
3.073173583,0.222932771,1.117430832,-9.324806231,9.394166378
3.083165583,0.06239107,0.761119563,-9.429375497,9.460249357
3.093157583,0.186521063,0.180475334,-9.429088984,9.432660309
3.103149583,0.826428284,0.462362,-8.404933375,8.458112517
3.113141583,0.978407359,0.57316849,-7.483649585,7.569069572
3.123133583,0.215330733,0.697040731,-8.529512397,8.560655047
3.133125583,-0.24533287,0.589998275,-10.19497366,10.21497793
3.143117583,-0.333960945,0.796741751,-11.76054343,11.79223088
3.153108583,-0.417848389,1.151885988,-12.6617245,12.72087677
3.163100583,-0.461132623,1.276117979,-13.02569496,13.09617691
3.173092583,-0.457100675,0.966954052,-12.91723613,12.96144013
3.183084583,-0.55832241,0.387082387,-12.50627042,12.52470984
3.193076583,-0.780701377,-2.249255023,-10.12106953,10.39734059
3.203068583,-1.81191516,-4.745711321,-7.679034296,9.207191765
3.213060583,-3.731059484,-3.179757972,-8.708855272,9.99378936
3.223052583,-1.010172431,7.307906256,-11.68387123,13.81806025
3.233044583,2.778852401,14.08255346,-1.625155238,14.44581123
3.243036583,-2.737910782,3.208559017,9.201200185,10.12191144
3.253028583,-3.964306962,-3.004784429,11.69841443,12.712095
3.263020583,-0.733589045,-5.203568187,17.62688065,18.39353681
3.273012583,-1.276433582,-6.65065115,24.25573572,25.18335082
3.283004583,-1.191947163,-7.592748104,26.54930138,27.63939156
3.292996583,-1.644451634,-8.75444075,26.85963417,28.29813424
3.302988583,-1.849400197,-8.327002269,25.98940008,27.35339402
3.312980583,-1.160256205,-6.806435593,23.30988778,24.31099809
3.322972583,-0.542628995,-4.748047283,19.70211596,20.27342528
3.332963583,0.02703895,-2.790086364,15.95039855,16.19260717
3.342955583,0.213272513,-1.306747741,12.63096112,12.70016747
3.352947583,0.217503997,-0.307282438,9.909648249,9.916796807
3.362939583,0.263512338,0.361502646,7.52614247,7.539425933
3.372931583,0.295147639,0.688468347,5.268645943,5.321628591
3.382923583,0.450734665,0.99967551,2.855033435,3.05838663
3.392915583,0.640054206,1.421289871,0.393878971,1.607754623
3.402907583,0.713516503,1.756907625,-1.945848119,2.717012165
3.412899583,0.877347081,1.939863055,-4.145080651,4.659881992
3.422891583,0.869438794,2.07591373,-5.944684644,6.356462629
3.432883583,0.944207214,2.400189639,-7.261389901,7.705856271
3.442875583,1.162568047,2.662298098,-8.260179704,8.756138668
3.452867583,1.252156089,2.682546421,-9.098006769,9.567532459
3.462859583,1.344969674,2.76093127,-9.742121428,10.21472539
3.472851583,1.239354195,2.713888081,-10.25899249,10.68401208
3.482843583,1.153865125,2.417234565,-10.89464915,11.2190823
3.492835583,1.183032352,2.043606548,-11.41010927,11.6518877
3.502827583,1.141381612,1.585295938,-11.72159279,11.88325093
3.512819583,0.959962683,1.195886067,-11.83543106,11.93436635
3.522810583,0.739750987,1.074180585,-11.8018622,11.87371243
3.532802583,0.640317988,0.926218255,-11.90630516,11.95943101
3.542794583,0.624582034,0.694641326,-12.04640796,12.08257315
3.552786583,0.652177018,0.44314688,-12.00549967,12.03136469
3.562778583,0.597502409,0.421855961,-11.81212289,11.83474625
3.572770583,0.737900928,0.718233452,-11.39033165,11.4367833
3.582762583,1.037480683,1.169320193,-11.05998736,11.16991478
3.592754583,1.288815792,1.473531235,-11.10531614,11.27654145
3.602746583,1.548375888,1.568212713,-11.34303119,11.55513373
3.612738583,1.448398294,1.275288259,-11.28729903,11.45108455
3.622730583,0.631623982,1.247923582,-10.35127909,10.44534542
3.632722583,-0.218472369,1.709432473,-8.271185333,8.448810352
3.642714583,-0.902647398,1.578078574,-4.373815541,4.736598642
3.652706583,-2.153730815,0.580324386,0.72579149,2.34565686
3.662698583,-3.55364005,-1.241309504,5.578036156,6.729316032
3.672690583,-2.410219222,-2.711185791,10.22047571,10.84517445
3.682682583,1.661457092,-2.689054664,15.87549455,16.18711778
3.692674583,5.554043276,-2.892086948,21.4222522,22.31870186
3.702665583,6.448512905,-4.680474813,25.32907167,26.55281595
3.712657583,4.303593405,-7.623779862,26.81574029,28.208631
3.722649583,1.814526672,-10.02892443,26.33153938,28.2351164
3.732641583,0.514403096,-10.40647447,24.25914348,26.40199545
3.742633583,0.114379578,-8.637549062,21.02350483,22.72901432
3.752625583,0.031584759,-5.94666685,17.18107607,18.1811226
3.762617583,-0.064604278,-3.649974682,12.54668871,13.06697695
3.772609583,-0.257723412,-1.718525478,7.660625507,7.855248839
3.782601583,-0.515313946,0.003810777,3.587695988,3.624517277
3.792593583,-0.758032818,1.367039112,0.493262926,1.639121107
3.802585583,-0.847190504,2.083253448,-1.807031127,2.88496762
3.812577583,-0.788540154,2.342096675,-3.341077974,4.155720688
3.822569583,-0.573874322,2.223872845,-4.385345081,4.950373082
3.832561583,-0.352334212,1.944413213,-5.473799012,5.819566802
3.842553583,-0.29801599,1.790801741,-6.627992604,6.872122698
3.852545583,-0.263782662,1.733363811,-7.605761667,7.805238108
3.862537583,-0.281299605,1.696245247,-8.412732975,8.586643903
3.872529583,-0.382969675,1.72842496,-9.255071168,9.42286904
3.882521583,-0.383030194,2.076313826,-10.19711608,10.41340327
3.892512583,-0.305701644,2.580916258,-11.19176723,11.48957074
3.902504583,-0.263659725,2.980685422,-12.07541132,12.44064148
3.912496583,-0.411164072,3.083681787,-12.83407469,13.20574202
3.922488583,-0.768866027,3.056427915,-13.71332752,14.07083005
3.932480583,-1.113317023,3.154625469,-14.52584023,14.90607833
3.942472583,-1.23328727,3.385236439,-15.22113499,15.64173179
3.952464583,-1.054485409,3.535998708,-15.85859376,16.2822057
3.962456583,-1.02493592,3.255001405,-16.0471384,16.40597996
3.972448583,-1.472552996,2.886110802,-15.63389813,15.9661147
3.982440583,-1.869033832,2.682475377,-14.18603047,14.55789896
3.992432583,-2.137806947,2.657931397,-11.44919206,11.9464981
4.002424583,-2.491421406,1.565259431,-6.947543525,7.544904157
4.012416583,-2.730587729,0.789014071,0.122746505,2.844946266
4.022408583,-2.792204518,0.675317594,6.950367145,7.520642484
4.032400583,-2.32947239,1.041691847,11.10756147,11.39690683
4.042392583,-1.254886154,1.534974508,14.74524063,14.87793693
4.052384583,0.409208982,0.74316503,19.67217821,19.69046322
4.06237675,2.059635521,-1.289711293,25.26849452,25.38507965
4.07236775,2.691198546,-4.147924152,29.24552269,29.66055329
4.08235975,1.942008107,-7.23032189,29.85454294,30.77893247
4.09235175,1.044153306,-8.837201071,27.7173786,29.11081338
4.10234375,0.302080317,-8.439752959,24.36360983,25.7857745
4.11233575,-0.5180272,-7.520059612,20.12812538,21.49327988
4.12232775,-1.143716259,-6.367495054,14.9433478,16.28363362
4.13231975,-1.22562581,-4.635046917,9.239329294,10.40917981
4.14231175,-0.927865854,-2.670417541,3.629309453,4.600429544
4.15230375,-0.589349271,-1.028367066,-1.379836475,1.81901624
4.16229575,-0.291781506,-0.06227397,-5.204250557,5.212795637
4.17228775,-0.096451065,0.362267973,-7.608711587,7.617941514
4.18227975,0.107855803,0.585802569,-8.716910981,8.737238384
4.19227175,0.426647243,0.456551219,-9.203508666,9.224697212
4.20226375,0.639404872,0.040006796,-9.43035549,9.452092034
4.21225575,0.872155484,-0.192163516,-9.867266461,9.907599579
4.22224775,1.266906714,-0.121336906,-10.39109629,10.4687467
4.23223975,1.616419498,0.028442282,-10.65026828,10.7722716
4.24223175,1.4626617,-0.005348192,-10.39941103,10.50176926
4.25222375,0.960127355,-0.340893623,-10.10997503,10.1611834
4.26221575,0.384783262,-0.649544383,-10.05944924,10.08773934
4.27220675,-0.022953464,-0.754782058,-10.16311335,10.19112829
4.28219875,-0.291820134,-0.571291498,-10.24038665,10.2604606
4.29219075,-0.459416099,-0.266050943,-10.21422153,10.22800898
4.30218275,-0.462527622,0.010211614,-10.07088756,10.08150843
4.31217475,-0.501284064,0.175509294,-9.981917496,9.996037521
4.32216675,-0.661557122,0.242152057,-9.938947477,9.9638834
4.33215875,-0.850181355,0.533924318,-10.07018122,10.12010046
4.34215075,-1.006426778,0.895097473,-10.25671558,10.34477205
4.35214275,-1.086073164,1.202222475,-10.49930253,10.62357037
4.36213475,-1.045012189,1.558338374,-10.64103436,10.80518769
4.37212675,-0.883029551,2.249656288,-11.0025256,11.2648242
4.38211875,-0.468528254,3.213795491,-11.10098452,11.56632429
4.39211075,-0.052252766,3.669893515,-9.914459338,10.57200798
4.40210275,-0.174507958,3.094592399,-7.012072227,7.666558032
4.41209475,-0.681674467,2.017871198,-2.906190725,3.603113762
4.42208675,-1.106424325,0.734224198,1.569436535,2.055818815
4.43207875,-1.599476021,-0.62230966,5.454223704,5.71787977
4.44207075,-1.6443458,-1.809042569,8.477892593,8.823331057
4.45206175,-0.880593893,-1.921925698,11.40404922,11.59834396
4.46205375,0.778343925,-1.286229423,14.4654268,14.54334136
4.47204575,1.58974143,-2.405536772,16.73147079,16.97810354
4.48203775,1.925475397,-4.890894469,13.83178041,14.79683931
4.49202975,1.397056525,-5.755510261,17.6186735,18.58750444
4.50202175,1.073517584,-6.559020018,23.64164476,24.5581056
4.51201375,3.109259554,-8.470688823,21.18894128,23.03022572
4.52200575,3.117011501,-8.794825714,17.86642704,20.15623812
4.53199775,1.718724137,-7.716644171,16.98702101,18.73658167
4.54198975,1.63505779,-5.97877742,16.17903521,17.32571424
4.55198175,2.246612813,-3.58473262,13.84719484,14.4790325
4.56197375,1.995901162,-1.15511599,9.130552956,9.417266678
4.57196575,1.617797686,0.494879535,4.373414422,4.689235419
4.58195775,1.414557826,1.182323962,0.02077925,1.843717866
4.59194975,1.086091364,1.720340307,-3.852834474,4.357005704
4.60194175,0.491177371,2.649819847,-7.094080596,7.588727162
4.61193375,0.510431046,2.961845693,-10.19770548,10.63138123
4.62192575,1.131048778,2.497313645,-9.791750255,10.16829483
4.63191775,1.932936444,2.041611186,-7.43087437,7.944955219
4.64190975,2.298622919,1.544247607,-5.111145342,5.813103706
4.65190075,2.074959757,1.281319223,-3.923045501,4.61925567
4.66189275,1.019627744,0.930881702,-4.100000373,4.326220583
4.67188475,-0.33063344,0.701527007,-4.100476336,4.17317203
4.68187675,-1.406992698,0.912493086,-3.590262331,3.962607184
4.69186875,-1.947959987,1.076480149,-3.217818083,3.912506976
4.70186075,-2.386509932,1.094823888,-3.1964775,4.13660941
4.71185275,-2.600298316,1.315678339,-3.336893122,4.430284024
4.72184475,-2.575630082,1.652797511,-3.525281639,4.668320958
4.73183675,-2.31877754,1.860371182,-4.1585655,5.111885878
4.74182875,-1.825347383,2.081237474,-5.020210029,5.732883326
4.75182075,-1.197648637,2.334123265,-5.68846901,6.26427756
4.76181275,-0.694301164,2.543741122,-6.120500479,6.664322855
4.77180475,-0.477738423,2.518617976,-6.353399171,6.851083968
4.78179675,-0.417275582,2.345295979,-6.380395181,6.810578155
4.79178875,-0.487211789,2.101629054,-6.141652781,6.509540606
4.80178075,-0.723442956,1.676327584,-5.138105099,5.45284952
4.81177275,-1.043407859,1.120022683,-3.700121573,4.004254041
4.82176475,-1.304466596,0.398364517,-2.059282349,2.470014409
4.83175675,-1.445190365,-0.363647916,-0.236270197,1.508853408
4.84174775,-1.699554187,-0.993246496,2.219463898,2.966655192
4.85173975,-1.87010475,-1.358236129,4.545170535,5.099085442
4.86173175,-1.76876227,-1.262180848,5.883349691,6.271795919
4.87172375,-2.139474134,-0.804807108,6.112503827,6.525930361
4.88171575,-2.688309729,-0.023686376,5.424592938,6.054236433
4.89170775,-2.824774679,0.827223432,4.934731337,5.74588757
4.90169975,-2.172181412,1.272189819,5.33700808,5.900889278
4.91169175,-0.733297634,1.034971642,6.899092326,7.014724987
4.92168375,1.251945004,0.237231552,9.344273951,9.430752927
4.93167575,3.209357747,-0.503912387,10.80445468,11.28229346
4.94166775,4.280620279,-0.725193978,11.01424576,11.83905511
4.95165975,4.552995279,-0.684922961,11.06137198,11.98135366
4.96165175,4.166158694,-0.754900099,11.11008864,11.88952573
4.97164375,3.441043727,-0.938676918,10.83197167,11.40410043
4.98163575,2.889687836,-1.228831546,9.625156649,10.1244241
4.99162775,2.364706104,-1.619408887,7.46669149,7.997862333
5.00161975,1.703002874,-1.967257407,4.561747976,5.251653558
5.01161175,0.790716195,-2.075221128,0.813870438,2.365197649
5.02160375,0.02289565,-1.747951737,-2.619277793,3.149043608
5.03159475,-0.290688771,-1.087406256,-4.677383682,4.810911602
5.04158675,-0.591532987,-0.552772671,-5.750771677,5.807481708
5.05157875,-0.653764026,-0.163914412,-6.162930799,6.199676715
5.0615735,-0.548676843,-0.001986884,-5.945339532,5.970604022
5.0715655,-0.411558613,-0.034695039,-5.288605413,5.304708423
5.0815575,-0.336714691,-0.074887191,-4.671721238,4.684438515
5.0915495,-0.49728698,-0.173268056,-4.180671483,4.213707419
5.1015415,-0.90100243,-0.286054414,-3.9404971,4.052301803
5.1115335,-1.267130516,-0.273387153,-4.251987634,4.445195059
5.1215255,-1.480005711,-0.102468654,-4.85870467,5.080150372
5.1315175,-1.539313288,0.134420471,-5.515543454,5.727894365
5.1415095,-1.58189549,0.418176053,-6.191456441,6.404014164
5.1515015,-1.558519637,0.797644049,-6.794841734,7.016772312
5.1614935,-1.517306415,1.170097288,-6.954256713,7.213392603
5.1714855,-1.438543251,1.435192942,-6.727371297,7.02756786
5.1814775,-1.269743052,1.554642495,-6.524916717,6.826690184
5.1914695,-1.216025851,1.461109264,-6.312602563,6.592610277
5.2014615,-1.087073404,1.216989034,-6.163385128,6.375743653
5.2114535,-0.874095736,1.001267122,-6.11952107,6.262197484
5.2214455,-0.677215892,0.808627532,-6.266607195,6.354751418
5.2314365,-0.429212672,0.638544893,-6.361720929,6.408077424
5.2414285,-0.160108459,0.565739018,-6.290890097,6.318306226
5.2514205,-0.149630249,0.407032137,-6.121416737,6.136758692
5.2614125,-0.616658911,0.089326452,-5.529501927,5.56449809
5.2714045,-1.446653485,-0.23916223,-4.3693126,4.608784816
5.2813965,-2.665490385,-0.524612335,-2.975172667,4.028859577
5.2913885,-3.750116729,-0.85238634,-0.679846993,3.905397533
5.3013805,-4.364066771,-1.366981225,2.358487882,5.145501097
5.3113725,-4.837861393,-1.91267131,4.808722086,7.084279956
5.3213645,-4.598634551,-1.476426922,6.795743374,8.337230008
5.3313565,-2.710796658,1.223048796,8.792529513,9.281855532
5.3413485,0.349976468,4.571096212,8.1699712,9.36834209
5.3513405,2.625929586,5.166244825,7.338214713,9.350667728
5.3613325,4.075330093,3.320972908,9.97037977,11.27145284
5.3713245,4.540806758,0.607879463,12.19237317,13.02468453
5.3813165,4.213718192,-1.557566249,13.69091865,14.40911819
5.3913085,3.527341613,-2.988477421,15.89361156,16.55234197
5.4013005,2.92213082,-3.9632875,17.09151075,17.78668705
5.4112925,2.43838336,-4.501921604,15.63525936,16.45218365
5.4212845,2.060850864,-4.117771815,12.1297378,12.97434739
5.4312755,1.433770899,-2.716336018,7.658852631,8.251800045
5.4412675,0.577321548,-0.907572142,3.421636233,3.586723
5.4512595,-0.098515388,0.433922312,-0.215078718,0.494219293
5.4612515,-0.522136806,0.89529087,-3.180079569,3.344709053
5.4712435,-0.755588901,0.685302591,-4.918233418,5.022904955
5.4812355,-0.784325335,0.308686501,-5.588131959,5.651342529
5.4912275,-0.738970529,-0.012746053,-5.622446929,5.670815582
5.5012195,-0.666317779,-0.178779605,-5.48423103,5.527452534
5.5112115,-0.657835223,-0.282052215,-5.329465172,5.377313423
5.5212035,-0.708766006,-0.356783322,-5.244255452,5.303947477
5.5311955,-0.767148408,-0.279706019,-5.465194834,5.525858007
5.5411875,-0.670712911,0.06225187,-6.001330715,6.039014941
5.5511795,-0.363223664,0.574012792,-6.569299423,6.60432563
5.5611715,-0.135810683,0.928010792,-6.995796502,7.058386308
5.5711635,-0.125215273,1.092717502,-7.401042461,7.482321826
5.5811555,-0.058808079,1.274097181,-7.711802092,7.816564049
5.5911475,0.001830105,1.434286478,-7.75422832,7.885761718
5.6011395,0.040010377,1.51556643,-7.679811975,7.828030047
5.6111315,0.052827108,1.488463562,-7.529885273,7.67577271
5.6211235,0.172750724,1.440522679,-7.268968477,7.412344509
5.6311145,0.331281385,1.333578275,-7.086531841,7.218525604
5.6411065,0.487186646,1.221621563,-7.292376051,7.410024193
5.6510985,0.675510844,1.040651481,-7.525755385,7.627336659
5.6610905,0.910695871,0.898678893,-7.719595846,7.824905798
5.6710825,1.160101326,0.93090626,-8.026058943,8.162722813
5.6810745,1.257245798,0.975230348,-8.021418008,8.177706774
5.6910665,0.943199227,0.862755792,-7.085448936,7.199830482
5.7010585,-0.189826768,0.624487967,-5.711625738,5.748798831
5.7110505,-1.807289281,0.606662694,-4.2277404,4.637685097
5.7210425,-3.808891771,1.363918307,-2.099318234,4.557967389
5.7310345,-5.476815006,2.767403261,0.835588167,6.19291781
5.7410265,-5.971781226,3.363395627,4.296385542,8.089099448
5.7510185,-4.225052727,2.671394319,7.536152319,9.04328535
5.7610105,-0.681036244,1.783120692,10.83700496,11.0038178
5.7710025,2.418045428,1.081780065,14.08380944,14.33076691
5.7809945,3.467481328,-0.353840455,16.1482543,16.52013156
5.7909865,2.643543446,-2.306326625,17.53835381,17.88578538
5.8009785,1.215898382,-4.051576948,18.44203163,18.92094647
5.8109705,0.303799873,-5.275975428,18.85459947,19.58121887
5.8209625,0.189348594,-5.710925826,18.5534246,19.41339978
5.8309545,0.252711234,-5.316359807,16.89363045,17.7122075
5.8409455,0.140414927,-4.137283974,14.1573335,14.75015006
5.8509375,-0.220184032,-2.635902012,10.53875018,10.86562082
5.8609295,-0.642344779,-1.232470414,6.35356991,6.503802022
5.8709215,-0.883214908,-0.124833011,2.642921594,2.789388178
5.8809135,-0.935609541,0.703867136,0.005455452,1.1708219
5.8909055,-0.886277387,1.009564759,-1.559910836,2.058647718
5.9008975,-0.84793237,0.815360747,-2.472170033,2.737777772
5.9108895,-0.80741979,0.480329762,-3.067828231,3.20845967
5.9208815,-0.741389011,0.230209485,-3.549033614,3.632945591
5.9308735,-0.721067086,0.045441965,-4.117696386,4.180601182
5.9408655,-0.676184297,-0.062025656,-4.733870709,4.782322059
5.9508575,-0.578437745,0.030041167,-5.306723596,5.338240161
5.9608495,-0.334381506,0.221953746,-6.044187298,6.057497383
5.9708415,-0.059758909,0.488367345,-6.885392885,6.902949295
5.9808335,0.140405681,0.832343327,-7.462293799,7.509882683
5.9908255,0.317023754,1.123357204,-7.847020124,7.933357441
6.0008175,0.156569578,1.194741255,-8.071981806,8.161422117
6.0108095,0.149015779,1.200748392,-8.196242155,8.285070179
6.0208015,0.283012839,1.033697388,-8.305206773,8.374072253
6.0307925,0.27168057,0.855244386,-8.25572588,8.304352057
6.0407845,0.133454365,0.729779145,-8.00183042,8.036148191
6.0507765,-0.061958266,0.681512865,-7.695956138,7.726321213
6.060766125,-0.290687456,0.675333162,-7.444149889,7.480370421
6.070758125,-0.340356921,0.679947419,-7.319898895,7.35928605
6.080750125,-0.261430108,0.648789653,-7.153240385,7.187358466
6.090742125,-0.122535859,0.54787011,-7.047872974,7.070197321
6.100734125,0.080172709,0.49028662,-7.110522966,7.127857005
6.110726125,0.318439364,0.468269807,-7.012308455,7.035136822
6.120718125,0.553487566,0.464689776,-6.641131883,6.680338147
6.130710125,0.571345182,0.406145114,-5.928810039,5.970107004
6.140702125,0.184874706,0.44302935,-4.680633565,4.705186949
6.150694125,-0.563531621,0.644302135,-3.107206889,3.22295327
6.160686125,-1.601438493,0.838330072,-1.295553539,2.223929299
6.170678125,-3.107077081,0.819303159,0.943618984,3.348970356
6.180670125,-4.618805691,0.41814879,3.301799887,5.692986643
6.190662125,-5.196164442,0.231656378,5.304526212,7.429117574
6.200654125,-4.088277582,0.66971121,6.684997694,7.864586503
6.210646125,-1.915722387,1.152244496,7.906271714,8.216251704
6.220638125,0.538690091,1.66289346,10.20014962,10.34883829
6.230630125,2.674310617,1.694387441,13.20425021,13.57847966
6.240621125,3.455391917,0.731077446,15.24735156,15.65106825
6.250613125,2.80681174,-0.47321889,16.33328944,16.57945934
6.260605125,1.507665818,-1.553322778,16.62149285,16.76185826
6.270597125,0.11135971,-2.495727588,15.81903033,16.0150797
6.280589125,-0.746209967,-2.910726118,14.01073094,14.32933136
6.290581125,-0.793640388,-2.674792428,11.01691209,11.36471432
6.300573125,-0.955434087,-1.92512968,7.126842545,7.443847342
6.310565125,-1.404018951,-1.307150468,2.510727158,3.159693406
6.320557125,-1.206432032,-0.406068296,-1.393226599,1.887180453
6.330549125,-0.911122937,0.417626561,-5.727110919,5.814151394
6.340541125,-0.935035345,1.207109213,-8.802586139,8.934031927
6.350533125,-1.02681463,1.832059841,-9.642955574,9.869011285
6.360525125,-0.899205654,1.77181744,-8.553242737,8.780994771
6.370517125,0.176723468,1.554660183,-5.625374045,5.838923926
6.380509125,1.438505829,1.36137623,-3.006544733,3.600271586
6.390501125,2.065062614,1.047436444,-1.624128467,2.828321053
6.400493125,2.126725742,0.824371745,-0.027296557,2.281073488
6.410485125,2.022485821,0.888713775,0.374866165,2.240710983
6.420477125,1.518072254,0.891720121,-0.011531294,1.760636565
6.430469125,1.029604483,0.796264399,-0.538157263,1.408451499
6.440460125,0.743400745,0.70088776,-1.429714978,1.757262997
6.450452125,0.499496862,0.657974094,-2.564888747,2.694639366
6.460444125,0.221637832,0.815669042,-3.58804916,3.686263161
6.470436125,-0.005276308,1.153539142,-4.290982715,4.443333552
6.480428125,-0.091616733,1.531708253,-4.674213907,4.919634076
6.490420125,-0.034775219,1.783577945,-4.972192694,5.282523998
6.500412125,0.177090601,1.910230097,-5.19733447,5.540092571
6.510404125,0.539817726,2.018910248,-5.25394195,5.654317623
6.520396125,0.978019104,2.012546431,-5.206447356,5.666917908
6.530388125,1.282464839,1.792525208,-5.168146339,5.618505074
6.540380125,1.252443626,1.422242675,-5.143947052,5.48193219
6.550372125,0.966278407,1.128558375,-4.864957682,5.086762351
6.560364125,0.650026486,0.846362831,-4.362345058,4.490981951
6.570356125,0.177107667,0.555840742,-3.554531751,3.602085788
6.580348125,-0.559380683,0.209699499,-2.613910634,2.681307411
6.590340125,-1.559125848,-0.25934627,-1.400208174,2.111567386
6.600332125,-2.506533535,-0.609421995,0.269791115,2.593625412
6.610324125,-3.027628039,-0.683457941,1.7545243,3.565389434
6.620316125,-3.060293509,-0.421601717,3.028605108,4.326152248
6.630308125,-2.558864361,0.12247651,4.241432825,4.955051939
6.640299125,-1.639310031,0.885132356,5.173621672,5.49883241
6.650291125,-0.823418357,1.321845836,6.026201847,6.224178894
6.660283125,-0.416826698,1.010890908,6.961818917,7.047167343
6.670275125,-0.613790925,0.046152731,7.663513446,7.688192747
6.680267125,-0.979128686,-1.034296654,7.956189394,8.082661209
6.690259125,-1.27457329,-1.947583281,7.971819586,8.304668881
6.700251125,-1.216501668,-2.539858864,7.931960286,8.417051345
6.710243125,-0.813869561,-2.830188031,8.140670217,8.656954403
6.720235125,-0.392156674,-2.934875118,8.502297117,9.003129182
6.730227125,-0.158955059,-2.953346473,8.559486394,9.056065891
6.740219125,0.144308624,-2.728980037,8.083861594,8.533286312
6.750211125,0.514798295,-2.231587953,7.111442733,7.471119048
6.760203125,0.602448277,-1.75564141,5.56055532,5.862166507
6.770195125,0.415871263,-1.330017028,3.804915957,4.052071031
6.780187125,0.124295104,-0.918763055,1.917900183,2.130238469
6.790179125,-0.031075155,-0.620655775,0.323522349,0.700604001
6.800171125,-0.140757583,-0.570663836,-0.939386185,1.108113855
6.810163125,-0.241963448,-0.640035056,-2.108818206,2.217048806
6.820155125,-0.30862273,-0.691860682,-3.175757892,3.26486713
6.830147125,-0.405459711,-0.700277238,-4.034504541,4.114852692
6.840139125,-0.489494725,-0.655234016,-4.841121508,4.909724448
6.850130125,-0.460539569,-0.593563944,-5.602270526,5.652419827
6.860122125,-0.330077809,-0.446112953,-6.370584723,6.394710145
6.870114125,-0.055981316,-0.127913644,-7.143284916,7.14464941
6.880106125,0.300139626,0.26037136,-7.837732406,7.847797545
6.890098125,0.613082169,0.506933534,-8.201254388,8.239746652
6.900090125,0.841062549,0.609621019,-8.366291465,8.430531234
6.910082125,0.966113661,0.660757442,-8.384549396,8.465851675
6.920074125,0.976600496,0.661648704,-8.315316024,8.39857179
6.930066125,0.92713159,0.64871247,-8.347246499,8.423593353
6.940058125,0.919299683,0.590904119,-8.617610641,8.686627237
6.950050125,0.930516105,0.612912015,-8.810921345,8.881095445
6.960042125,1.064791711,0.716278728,-8.913098515,9.005007592
6.970034125,1.24081863,0.795274246,-8.928713504,9.049531305
6.980026125,1.426519329,0.856413756,-8.793653347,8.949678269
6.990018125,1.669536482,0.925694491,-8.693691103,8.900816106
7.000010125,1.916832481,0.963414733,-8.499798601,8.766355626
7.010002125,1.957368596,0.978202634,-8.263110328,8.547933347
7.019994125,1.668227875,1.221331468,-7.885212382,8.151761105
7.029986125,1.129218087,1.859764972,-6.810681841,7.14977247
7.039978125,-1.073059309,2.367357816,-2.329823661,3.490546891
7.049969125,-2.668994329,2.973555912,0.40865547,4.016536416
7.059964208,-3.843997869,2.386959729,5.342365299,7.001054446
7.069956208,-2.710870333,2.125516976,9.844332511,10.42964635
7.079948208,0.615687615,2.483494628,13.02782685,13.27671229
7.089940208,4.278747124,2.838892489,17.13005209,17.88311137
7.099932208,5.584410791,1.358783721,20.2412807,21.04142061
7.109924208,4.640136334,-1.533573661,21.97269505,22.50959886
7.119916208,2.581044019,-4.004618252,22.10441176,22.61202722
7.129908208,0.66970222,-5.204461641,20.58628513,21.24453006
7.139900208,-0.556888088,-5.105606859,17.70327569,18.43321231
7.149892208,-1.362771814,-4.187199315,14.07880423,14.75135633
7.159884208,-1.781196812,-2.902354952,10.5862553,11.12048235
7.169876208,-1.796660066,-1.59803132,7.394132806,7.775274365
7.179868208,-1.629834472,-0.498044852,4.325829197,4.64943086
7.189860208,-1.424460524,0.35545012,1.515394814,2.109941709
7.199852208,-1.224363834,0.961810038,-0.775343134,1.739339623
7.209844208,-1.083122221,1.220889273,-2.631067534,3.096165488
7.219836208,-0.99703403,1.295063688,-4.07546604,4.390978281
7.229828208,-0.976248202,1.2245565,-4.948530766,5.190429262
7.239820208,-1.017849387,1.073476142,-5.492076239,5.687817667
7.249812208,-1.013027481,0.945276304,-5.885665773,6.046555512
7.259803208,-0.973391837,0.817739102,-6.339700899,6.46591033
7.269795208,-0.915192307,0.766816213,-6.690710424,6.796410085
7.279787208,-0.757674603,0.737028815,-6.942867506,7.022869178
7.289779208,-0.513994156,0.775132196,-7.20299025,7.262787926
7.299771208,-0.175214887,0.856649764,-7.388542283,7.440101219
7.309763208,0.15483332,0.861312553,-7.431936225,7.483281948
7.319755208,0.418500354,0.845482313,-7.448875608,7.508377369
7.329747208,0.652642676,0.815996047,-7.415914854,7.489164515
7.339739208,0.860826211,0.793724003,-7.51387969,7.604564915
7.349731208,1.121969587,0.903732056,-7.77529116,7.907635551
7.359723208,1.444189322,1.202988095,-7.900109918,8.120628047
7.369715208,1.66547676,1.508097197,-7.804544195,8.121519567
7.379707208,1.987290845,1.506374899,-7.69111172,8.085276107
7.389699208,2.230534724,1.150328583,-7.52639507,7.933798822
7.399691208,2.321741055,0.657826087,-7.159011587,7.554777534
7.409683208,1.931183887,0.328175709,-6.263616344,6.562778391
7.419675208,1.123320878,0.263077634,-4.781343668,4.918567567
7.429667208,0.175657156,0.531004803,-2.851936165,2.90626245
7.439659208,-1.003390173,1.279937672,0.100362779,1.629449285
7.449651208,-2.565893591,2.267587214,3.809589636,5.122375903
7.459643208,-4.203347278,2.388967955,7.173498064,8.65068614
7.469634208,-4.064988999,1.626794359,8.566460368,9.620542536
7.479626208,-1.804748081,1.071361058,8.472236581,8.728328754
7.489618208,1.589239739,0.823598159,10.21991671,10.37548527
7.499610208,3.683584478,-0.064420675,12.54682671,13.07653643
7.509602208,3.574962507,-1.890742351,15.11400698,15.64571732
7.519594208,2.446609369,-3.749957392,17.49720344,18.06101343
7.529586208,1.281929526,-4.938126231,18.27860546,18.97724563
7.539578208,0.408120523,-5.498575419,16.77984831,17.66250841
7.549570208,-0.276634842,-5.249494557,13.53261698,14.51776299
7.559562208,-0.809285052,-4.193179847,9.463530838,10.38249081
7.569554208,-1.037119325,-2.787142876,5.487911852,6.241871386
7.579546208,-0.798719572,-1.441482646,1.783777919,2.428515769
7.589538208,-0.403004136,-0.401067246,-1.598935738,1.697015841
7.599530208,-0.102968298,0.157210798,-4.131156092,4.135428437
7.609522208,0.153741152,0.306204102,-5.88510561,5.895071275
7.619514208,0.355474861,0.297047436,-7.035095054,7.050330629
7.629506208,0.441224717,0.230437709,-7.699733439,7.715806881
7.639498208,0.371632801,0.095307751,-8.066729836,8.075848238
7.649490208,0.159491066,-0.051174429,-8.366142361,8.367818965
7.659482208,-0.098229806,-0.142583879,-8.487572658,8.489338542
7.669473208,-0.181420098,-0.255848356,-8.469704152,8.475509427
7.679465208,-0.101211429,-0.400390029,-8.311166255,8.321420579
7.689457208,0.025222001,-0.416819353,-8.075527557,8.086316828
7.699449208,0.254268183,-0.291011757,-7.963298439,7.972669702
7.709441208,0.486818089,-0.088320658,-7.845244909,7.860830749
7.719433208,0.734715072,0.100738243,-7.618254243,7.654263658
7.729425208,0.93246352,0.232407965,-7.438206779,7.500028117
7.739417208,1.083224912,0.277231916,-7.478575371,7.561701087
7.749409208,1.31493165,0.309800542,-7.683671722,7.801527591
7.759401208,1.553190924,0.339243173,-7.974756643,8.131680729
7.769393208,1.708038204,0.189766341,-8.160484677,8.339479356
7.779385208,1.668056844,-0.195272591,-8.329117792,8.496749273
7.789377208,1.50969948,-0.701253796,-8.353950332,8.518182644
7.799369208,1.382988416,-1.073627146,-8.118922083,8.305554046
7.809361208,0.786011818,-0.237031066,-6.59307771,6.643995183
7.819353208,-0.409098981,1.602581331,-3.272001892,3.666282215
7.829345208,-1.00026659,2.814421014,1.236911228,3.232869976
7.839337208,-1.182963209,2.766921743,7.579441595,8.154948974
7.849329208,0.519167736,2.413599498,12.58747421,12.8272953
7.859321208,4.286849903,2.828460764,17.40125882,18.14334812
7.869312208,7.250324045,2.801237882,21.99914785,23.3318803
7.879304208,7.729966468,1.149544763,24.3390141,25.5628919
7.889296208,5.400902359,-1.371237121,24.09484373,24.73078106
7.899288208,2.095125196,-3.076685593,22.38763218,22.69496901
7.909280208,-0.372915095,-3.328479855,19.14321102,19.43400041
7.919272208,-1.618543499,-2.487594404,15.00604633,15.29670668
7.929264208,-1.927028563,-1.405499758,10.97382396,11.23003477
7.939256208,-1.827588914,-0.411360757,7.166242839,7.40704633
7.949248208,-1.646455037,0.390534218,3.474141306,3.864322577
7.959240208,-1.392153196,1.060243674,0.45296684,1.80759125
7.969232208,-1.135954445,1.4640165,-1.89136201,2.647826857
7.979224208,-0.95494431,1.403147277,-3.691178842,4.062701337
7.989216208,-0.833110848,1.099893643,-5.022099264,5.208197455
7.999208208,-0.651068021,0.762026685,-5.868568515,5.953542697
8.009200208,-0.1648879,0.567104197,-6.3732148,6.400520454
8.019192208,0.535717147,0.550791562,-6.35751678,6.40377887
8.029184208,1.184819261,0.680119035,-6.012965505,6.166207323
8.039176208,1.477785815,0.74229701,-5.89564697,6.123194343
8.049168208,1.413539241,0.58542345,-6.189288293,6.375586512
8.059156583,1.151120222,0.299865538,-6.701786805,6.80653682
8.069147583,0.811100247,-0.046279981,-7.29461378,7.339714957
8.079139583,0.418060789,-0.407829697,-7.836330829,7.858064694
8.089131583,0.017066049,-0.677756613,-8.377737975,8.405125748
8.099123583,-0.255864655,-0.770066607,-8.827443822,8.864662077
8.109115583,-0.416823007,-0.810461658,-9.114907562,9.1603564
8.119107583,-0.65554538,-0.899497649,-9.16993103,9.237232858
8.129099583,-0.80346064,-0.994502332,-9.142670141,9.231630474
8.139091583,-0.74332422,-0.958992484,-8.995472919,9.076933982
8.149083583,-0.253811332,-0.73695134,-8.674122811,8.709071363
8.159075583,0.235786559,-0.584861752,-8.291921899,8.315866001
8.169067583,0.648704284,-0.605060666,-7.761299942,7.811830288
8.179059583,1.183973169,-0.911667459,-7.435164472,7.583838128
8.189051583,1.4652469,-1.512365372,-7.247025046,7.546758875
8.199043583,1.639796666,-2.127581044,-6.828375515,7.337727603
8.209035583,1.639904839,-2.664663881,-6.291588255,7.026649575
8.219027583,1.283545843,-2.645285039,-5.890637661,6.583664247
8.229019583,0.383113151,-1.501773433,-5.690868123,5.898142006
8.239011583,-1.218519762,0.789072397,-4.811439287,5.025671465
8.249003583,-3.155178324,3.223059527,-3.407676591,5.652921609
8.258995583,-4.745333006,4.772926016,-1.924401117,7.000166266
8.268987583,-5.213034244,4.950170326,-0.289179897,7.194688131
8.278978583,-3.85924273,4.26886913,0.860198513,5.818671633
8.288970583,-1.302355751,3.993823707,3.44244355,5.43113026
8.298962583,1.760291262,4.068822726,7.873116832,9.035480748
8.308954583,3.613047177,2.630822536,11.88853548,12.70089024
8.318946583,3.855153187,0.173151112,15.69292226,16.16044543
8.328938583,3.111820927,-2.656177232,19.47900726,19.90403052
8.338930583,2.032153022,-4.934122642,21.5689448,22.21923923
8.348922583,0.572897253,-5.786598737,20.26000114,21.07796438
8.358914583,-0.928633301,-4.975626764,16.31883278,17.08576966
8.368906583,-2.01468008,-3.240647952,11.67165406,12.27958645
8.378898583,-2.405748295,-1.666783613,7.3845691,7.943403129
8.388890583,-2.041869487,-0.496404124,3.739449361,4.289420658
8.398882583,-1.213993944,0.17275807,1.252065457,1.752510929
8.408874583,-0.258290245,0.492891372,-0.213390042,0.595979081
8.418866583,0.731515841,0.699056558,-1.091100966,1.488051348
8.428858583,1.302485998,0.711163511,-1.374466392,2.022716286
8.438850583,1.367190848,0.491886455,-1.170192159,1.865613247
8.448842583,1.025002871,0.152312805,-0.856824669,1.344610943
8.458834583,0.569129343,-0.182819922,-0.533572462,0.80126831
8.468826583,-0.104457584,-0.387813216,-0.075614439,0.408690617
8.478817583,-0.726334404,-0.288583189,0.387831196,0.872499261
8.488809583,-1.149374755,0.018869257,0.634125275,1.31283405
8.498801583,-1.300491659,0.374268141,0.400857038,1.411397024
8.508793583,-1.230012245,0.655951762,-0.544137211,1.49642512
8.518785583,-0.994889564,1.013230087,-2.040188851,2.485721424
8.528777583,-0.686398798,1.449008743,-3.631717336,3.969904339
8.538769583,-0.473499009,1.797756858,-5.061404833,5.392026512
8.548761583,-0.350565941,2.018299068,-5.926746556,6.270785624
8.558753583,-0.23665721,2.122558139,-6.50097003,6.842797018
8.568745583,-0.167703042,1.975691431,-7.154600447,7.424270234
8.578737583,-0.228566344,1.701941312,-7.632425555,7.823219712
8.588729583,-0.284666285,1.171681225,-7.927881854,8.01905122
8.598721583,-0.387803422,0.514529907,-8.243375975,8.2685174
8.608713583,-0.435570935,0.309463706,-8.592497435,8.609094144
8.618705583,-0.569241354,0.487132596,-8.027989694,8.062874947
8.628697583,-0.682176231,0.768136003,-7.175754504,7.248920612
8.638689583,-0.472710548,0.836368185,-6.63009117,6.699333991
8.648681583,-0.251723511,0.625198039,-6.569905195,6.60438427
8.658673583,-0.210394806,0.073245001,-6.41669762,6.420563772
8.668665583,-0.095426121,-0.396082202,-4.529237457,4.547524513
8.678656583,-0.454277603,0.269412946,-4.471939421,4.503020504
8.688648583,-2.411543763,2.207261197,-2.596195325,4.174658726
8.698640583,-5.433559644,4.955125841,0.12542336,7.354765361
8.708632583,-7.592196127,6.425511128,0.733323873,9.973284272
8.718624583,-6.994875566,5.563388296,0.887099798,8.981454201
8.728616583,-3.34970057,4.389709735,2.46065862,6.045236663
8.738608583,0.734729252,4.030136086,6.366787541,7.570852497
8.748600583,3.521922706,2.686942065,11.96198703,12.75589005
8.758592583,4.696340648,-0.422413238,17.50979367,18.13358549
8.768584583,5.196957325,-3.349163504,23.8280844,24.6171255
8.778576583,3.835378196,-6.088902125,26.67895286,27.6324335
8.788568583,1.611365457,-7.452800844,25.04807086,26.1829447
8.798560583,-0.286889762,-6.735986584,19.99022465,21.09656139
8.808552583,-1.333861572,-4.998609245,13.33690366,14.30518368
8.818544583,-1.965452372,-3.521512524,6.004986395,7.233527154
8.828536583,-2.188375714,-1.89361538,-0.876827994,3.023837761
8.838528583,-1.727042532,-0.173753521,-5.279048724,5.557087513
8.848520583,-1.088744172,0.755666377,-7.520121592,7.636008402
8.858512583,-0.524206063,0.955965526,-7.627612712,7.705137102
8.868504583,-0.018973045,0.561461049,-6.603691576,6.627544109
8.878496583,0.159243035,-0.230807436,-4.988246225,4.996121577
8.888487583,0.047015743,-0.941685895,-3.327937526,3.458923385
8.898479583,-0.093515434,-1.450897686,-2.421349543,2.824319891
8.908471583,-0.189446133,-1.623426655,-2.661764247,3.123522506
8.918463583,-0.174238329,-1.408983529,-3.713509943,3.975644561
8.928455583,-0.162452973,-0.875888639,-5.014137111,5.092655775
8.938447583,-0.075625548,-0.240318224,-6.044334648,6.049582912
8.948439583,-0.017527248,0.240716127,-6.786605346,6.790895639
8.958431583,0.169180853,0.418723352,-7.592985501,7.606403895
8.968423583,0.342134475,0.45535952,-8.331223959,8.350670688
8.978415583,0.525956682,0.455567389,-8.716001739,8.743732521
8.988407583,0.737920004,0.462934296,-8.772359542,8.815504865
8.998399583,0.929127976,0.455052103,-8.668156312,8.729678405
9.008391583,0.952751019,0.418859154,-8.622069728,8.684656809
9.018383583,0.849330366,0.346133824,-8.681782079,8.730092254
9.028375583,0.770840194,0.257311987,-8.809068362,8.846473279
9.038367583,0.773323068,0.148886921,-8.89401905,8.928816873
9.048359583,0.995151446,0.153522886,-8.759872229,8.81755392
9.058351583,1.288301822,0.204731631,-8.449281582,8.549385701
9.068343708,1.477430305,0.25700457,-8.234246133,8.369687033
9.078335708,1.404804232,0.064615534,-7.779671894,7.905753909
9.088326708,0.789796794,-0.476307755,-6.880827963,6.9423657
9.098318708,-0.209057621,-0.855253522,-5.552152287,5.621526367
9.108310708,-1.659263362,-0.973065562,-3.690967172,4.162120873
9.118302708,-3.477435335,-0.808797394,-1.53630855,3.886766483
9.128294708,-4.914789408,-0.389249438,1.71511699,5.219990071
9.138286708,-4.812039211,0.053031761,5.419519894,7.247739622
9.148278708,-3.026024147,0.64398485,7.701384108,8.299569616
9.158270708,-0.888951757,1.577205146,8.17513663,8.373211464
9.168262708,0.662321134,2.319699938,9.747629505,10.04171091
9.178254708,1.686227359,1.306647607,12.99876736,13.17264755
9.188246708,1.855279865,-1.210996515,15.7316741,15.88691744
9.198238708,1.759004728,-3.042939557,17.99945354,18.33940856
9.208230708,1.461074034,-3.984421384,19.4903836,19.94706505
9.218222708,1.181997614,-4.378944426,18.81517637,19.35415032
9.228214708,0.81896921,-3.997376183,15.99605712,16.50828793
9.238206708,0.313852443,-2.680587603,11.93484776,12.2362022
9.248198708,0.012308608,-1.26363008,7.007527186,7.120558247
9.258190708,0.078690768,0.021391527,1.893921921,1.89567668
9.268182708,0.30095851,1.168591337,-2.318142094,2.613420078
9.278174708,0.674405136,1.871199641,-4.870062886,5.260581993
9.288166708,1.047180482,1.945480329,-5.253584685,5.69926598
9.298157708,1.28394667,1.604127627,-3.889664916,4.399004166
9.308149708,1.345373863,1.134029177,-2.311065209,2.904664422
9.318141708,1.414119577,0.787052695,-1.271481721,2.058118532
9.328133708,1.508963169,0.59094377,-0.882482836,1.845253463
9.338125708,1.303481486,0.564078701,-1.05633693,1.770055501
9.348117708,0.936536398,0.717737608,-1.510180267,1.916479099
9.358109708,0.568668108,0.951183381,-2.113255073,2.386206245
9.368101708,0.322525545,1.19560964,-2.840346399,3.098559795
9.378093708,0.168966698,1.33976112,-3.630787044,3.873773892
9.388085708,0.127450152,1.381423263,-4.400621517,4.614113512
9.398077708,0.08185371,1.340498162,-5.102116656,5.275910322
9.408069708,-0.018678053,1.256542378,-5.533352904,5.674261359
9.418061708,-0.015748452,1.19998745,-5.765584429,5.889157979
9.428053708,-0.044160073,1.148698598,-6.089230154,6.196788075
9.438045708,-0.011449579,1.12055975,-6.474233052,6.570500655
9.448037708,0.216192613,1.03638411,-6.723371801,6.806214781
9.458029708,0.546875754,0.917053329,-6.872618473,6.955066108
9.468021708,0.901422552,0.74890568,-7.126637308,7.222352917
9.478013708,1.036489433,0.488904923,-7.308717265,7.398019088
9.488005708,1.266571376,0.144996476,-7.357084848,7.466721133
9.497996708,1.416839702,-0.176401287,-7.192517302,7.332861467
9.507988708,0.935609907,-0.25600455,-6.82381995,6.892417786
9.517980708,0.173409413,0.200098444,-5.764699745,5.770777535
9.527972708,-0.970454196,1.134291424,-3.789419666,4.072849099
9.537964708,-2.740054371,2.758806977,-1.090158979,4.0382373
9.547956708,-4.11880034,4.467561026,1.172494792,6.188567023
9.557948708,-3.820314599,5.635885584,1.654452127,7.006798256
9.567940708,-1.699567781,6.461635226,2.004788638,6.9757034
9.577932708,0.821974533,6.698231113,4.633681592,8.186143614
9.587924708,1.999857973,4.85803341,9.105488867,10.51236643
9.597916708,2.416776582,1.896449964,14.63190054,14.95091452
9.607908708,2.441766266,-1.264330869,19.72000376,19.91078359
9.617900708,2.019832062,-3.921069142,21.66415619,22.10859941
9.627892708,1.648260072,-5.180540682,20.12272489,20.84415554
9.637884708,1.228014836,-4.88289811,16.78151945,17.52056247
9.647876708,0.592931202,-3.813050019,12.95047755,13.51317085
9.657868708,-0.038146504,-2.547078421,9.15146143,9.499384714
9.667860708,-0.313454321,-1.511004725,5.217241901,5.440680283
9.677852708,-0.373924252,-0.856493351,1.227631697,1.542880355
9.687844708,-0.370273323,-0.533582,-1.755700175,1.871976279
9.697835708,-0.531798855,-0.378610685,-3.720563439,3.777399685
9.707827708,-0.864170819,-0.390646119,-4.957202187,5.047103042
9.717819708,-1.173048377,-0.440936595,-5.622256894,5.760229176
9.727811708,-1.331305023,-0.487655154,-5.942161571,6.108965931
9.737803708,-1.345070538,-0.478348214,-6.061862846,6.227697241
9.747795708,-1.332444207,-0.390746545,-5.978172233,6.137314859
9.757787708,-1.294330009,-0.300576413,-5.771635712,5.922618943
9.767779708,-1.15947699,-0.191882521,-5.574841822,5.697373705
9.777771708,-0.9635509,-0.165400993,-5.459609574,5.546451526
9.787763708,-0.679990981,-0.069467115,-5.305698579,5.349546787
9.797755708,-0.340470796,0.104558668,-5.069471067,5.081967116
9.807747708,-0.078364677,0.276267199,-4.754547048,4.763211335
9.817739708,0.078339607,0.411062988,-4.595032082,4.614046999
9.827731708,0.22694725,0.548060108,-4.597032999,4.635146959
9.837723708,0.460680487,0.68348345,-4.782938204,4.853439399
9.847715708,0.820703275,0.74781437,-5.105671179,5.225003195
9.857707708,1.229947487,0.762663228,-5.507299465,5.694275495
9.867699708,1.799945471,0.703235856,-6.06009991,6.360751158
9.877691708,2.37560736,0.702355192,-6.831215508,7.266520382
9.887683708,2.565248936,0.899574467,-7.478704594,7.95743418
9.897675708,2.9952637,0.980564032,-8.18418695,8.770064224
9.907666708,3.115325164,0.644347524,-9.012153856,9.557162326
9.917658708,2.387304715,0.27486679,-9.249330372,9.556405594
9.927650708,1.06461878,0.335282708,-8.281780488,8.356656969
9.937642708,-0.098573531,0.710923775,-5.299035092,5.34742015
9.947634708,-1.266467734,0.878524271,0.107839029,1.545113158
9.957626708,-2.410412034,1.181406534,5.991454183,6.565312697
9.967618708,-2.510352644,1.741799881,8.65039364,9.174151043
9.977610708,-1.066808781,2.777909245,7.979832026,8.516606126
9.987602708,0.88879359,3.711624508,7.718500662,8.610537905
9.997594708,1.457228467,2.96516428,8.705235845,9.311114065
10.00758671,0.638290539,1.231904696,9.940535581,10.03689452
10.01757871,-0.314319416,0.052500541,10.40705685,10.41193475
10.02757071,-0.659313326,-0.73710059,11.26508663,11.30841227
10.03756271,-0.968879687,-1.89692929,13.12151211,13.29327457
10.04755471,-1.298226155,-3.311080003,14.91917542,15.3372239
10.05754671,-1.401900504,-4.103210786,14.87469682,15.4938139
10.06753846,-1.383303874,-3.594938642,12.23914739,12.83097199
10.07753046,-1.499322719,-2.083151268,8.382523336,8.766651886
10.08752246,-1.486626367,-0.758164453,5.136740944,5.401016461
10.09751446,-1.141294927,0.029860013,2.796322128,3.020407782
10.10750646,-0.618526439,0.469198089,1.4055613,1.605716155
10.11749746,-0.075133788,0.676078463,0.608692811,0.912816581
10.12748946,0.391530766,0.867706484,0.008490157,0.951988952
10.13748146,0.680366664,0.993603907,-0.373197954,1.260723695
10.14747346,0.778589874,1.121819825,-0.725837683,1.546454737
10.15746546,0.743816848,1.234626721,-1.261670678,1.915562462
10.16745746,0.643390554,1.323334099,-1.919881219,2.418906455
10.17744946,0.437218863,1.365739276,-2.803800716,3.14923841
10.18744146,0.216411847,1.457073077,-3.769423943,4.047030133
10.19743346,0.111317026,1.598994941,-4.66404209,4.93178111
10.20742546,0.160945013,1.702244052,-5.456934473,5.718537571
10.21741746,0.213877773,1.671489744,-6.043356408,6.273896584
10.22740946,0.248113001,1.564170533,-6.425530424,6.617826739
10.23740146,0.189051519,1.535508066,-6.7204862,6.896264226
10.24739346,0.104241785,1.508749307,-7.100374539,7.2596494
10.25738546,0.080746832,1.453582143,-7.420996084,7.562446957
10.26737746,0.095980729,1.453070073,-7.701399311,7.837868096
10.27736946,0.161186064,1.468046693,-7.923544389,8.060006062
10.28736146,0.34432455,1.442173495,-8.242676064,8.374970596
10.29735346,0.569446445,1.471734678,-8.535318682,8.679973342
10.30734546,0.82625623,1.510636204,-8.606235468,8.776788138
10.31733746,1.134767534,1.536769018,-8.413478495,8.627628687
10.32732846,1.458415159,1.744759449,-7.888527753,8.209752154
10.33732046,2.082747664,2.084262239,-7.07981222,7.66848929
10.34731246,2.431343604,2.050237583,-6.076574441,6.858546698
10.35730446,2.70985818,1.659611564,-4.865890898,5.81158637
10.36729646,2.489108248,1.598344,-2.765033677,4.049169624
10.37728846,0.516966077,2.188702281,0.924902632,2.431690046
10.38728046,-2.624835572,2.876948215,5.812566222,6.99660767
10.39727246,-4.67615869,2.466000051,9.438057443,10.81778834
10.40726446,-4.157360096,1.920370485,10.56013462,11.51033922
10.41725646,-1.770775466,2.311614116,11.3743173,11.74113706
10.42724846,0.283366449,2.590196081,13.35531888,13.60712882
10.43724046,1.101572525,1.752711809,14.48967053,14.63680336
10.44723246,0.779524844,0.541400275,14.2589663,14.29051759
10.45722446,-0.047402857,-0.226392642,13.26415962,13.2661762
10.46721646,-1.151700047,-0.905503324,11.99859411,12.0877049
10.47720846,-2.12925744,-1.816276744,10.79277662,11.14973657
10.48720046,-2.930974149,-2.615064582,9.440312714,10.22490471
10.49719246,-3.492532554,-2.844676262,7.473617517,8.726105974
10.50718446,-3.655210572,-2.517407017,4.814875696,6.548353257
10.51717646,-3.482163979,-1.827733047,2.073256025,4.445724307
10.52716846,-3.184954977,-1.10937907,-0.500687721,3.409596504
10.53715946,-2.904103269,-0.638890756,-2.657675874,3.98813719
10.54715146,-2.419712323,-0.340851157,-3.988405677,4.677453055
10.55714346,-1.727869036,-0.102031574,-4.599159631,4.914082942
10.56713546,-1.095988799,-0.024606399,-4.886992915,5.00844254
10.57712746,-0.588249921,-0.028364697,-5.095832069,5.129751164
10.58711946,-0.061459353,-0.095377589,-5.18509157,5.186332878
10.59711146,0.464050347,-0.203048803,-5.138553581,5.163458574
10.60710346,0.835518366,-0.319676343,-5.054170657,5.132730749
10.61709546,0.869645201,-0.411906083,-5.086069558,5.176297223
10.62708746,0.786063712,-0.41064367,-5.128108115,5.204230704
10.63707946,0.683698408,-0.444449128,-5.263774043,5.326565095
10.64707146,0.546949575,-0.482430521,-5.509704425,5.557763569
10.65706346,0.48818261,-0.467074782,-5.929433936,5.967802604
10.66705546,0.43208117,-0.394484451,-6.448670779,6.475157677
10.67704746,0.348910886,-0.291425447,-7.05303665,7.067672431
10.68703946,0.294203752,-0.125334994,-7.641025055,7.647713946
10.69703146,0.366248465,0.10148559,-8.148434735,8.157292804
10.70702346,0.501396549,0.463815691,-8.317725077,8.345721895
10.71701546,0.70168532,0.697912551,-8.149806492,8.209676612
10.72700746,0.853000736,0.856643186,-8.094563752,8.184339323
10.73699946,0.921400807,0.985694159,-7.984765322,8.097965773
10.74699046,0.845909379,1.04610401,-7.943457667,8.056575946
10.75698246,0.65134876,0.907212465,-7.875709487,7.954501216
10.76697446,0.484375378,0.619597868,-7.585623856,7.626284175
10.77696646,0.399891078,0.308677584,-6.714111566,6.733089101
10.78695846,0.350982628,0.152678329,-4.881892388,4.896873775
10.79695046,-0.271943694,0.279248109,-1.444371609,1.496042187
10.80694246,-1.363301572,0.610142116,2.567801245,2.970600581
10.81693446,-2.197160717,0.736647211,5.795701098,6.241819891
10.82692646,-2.224350124,1.277568965,7.391057171,7.823531302
10.83691846,-1.854595595,2.367541418,6.700691037,7.344660479
10.84691046,-0.566508219,3.850842035,5.357123671,6.621834336
10.85690246,1.199859469,4.742167908,5.894779828,7.660042326
10.86689446,3.033423506,4.342031539,8.738440429,10.21837742
10.87688646,4.244942908,3.206708958,11.6035913,12.76502463
10.88687846,4.416012558,1.889057183,13.09025056,13.94361372
10.89687046,3.871015806,0.644586529,13.33069742,13.89632142
10.90686246,2.973662331,-0.773572963,12.85606256,13.21814765
10.91685446,2.001553958,-2.294634094,12.17026836,12.5453974
10.92684646,1.192476775,-3.185389425,11.48452094,11.97760109
10.93683846,0.539903388,-3.207326716,10.08236097,10.59398145
10.94682946,-0.003340514,-2.673543755,7.37168476,7.841529416
10.95682146,-0.508752932,-1.921852316,3.973139182,4.442767249
10.96681346,-0.826859151,-1.312431234,0.979023875,1.834300834
10.97680546,-0.960571451,-0.985193126,-0.88076317,1.633721754
10.98679746,-1.00655359,-0.923516111,-1.728844498,2.203391802
10.99678946,-0.977995423,-0.928407818,-1.922183268,2.348021431
11.00678146,-1.137280813,-0.949896116,-2.015920567,2.501928459
11.01677346,-1.457085502,-1.044515175,-2.150776656,2.799991131
11.02676546,-1.707634308,-1.044769164,-2.382833349,3.112145932
11.03675746,-1.818618846,-0.960053095,-2.805853674,3.47877727
11.04674946,-1.839736358,-0.840958396,-3.363968654,3.925318585
11.05674146,-1.715760476,-0.720421115,-3.890472416,4.312611299
11.066733,-1.495772874,-0.550820798,-4.377494609,4.658669241
11.076725,-1.21940101,-0.223662284,-4.888088683,5.042853816
11.086717,-0.880187512,0.194657025,-5.393231982,5.468050167
11.096709,-0.507721775,0.555346323,-5.960513642,6.007821054
11.106701,-0.116749162,0.784754447,-6.475769116,6.52419003
11.116693,0.199136431,1.056976323,-6.827116025,6.911321689
11.126685,0.494232687,1.305842884,-7.130336257,7.265754381
11.136677,0.814998366,1.461470476,-7.36531188,7.553008499
11.146669,0.950864708,1.646134171,-7.528455044,7.764762504
11.156661,0.890244723,1.837288713,-7.450133345,7.724807592
11.166652,0.733470931,1.716867354,-7.208701226,7.446541914
11.176644,0.4809177,1.240079981,-7.063220161,7.187361076
11.186636,0.09053244,0.51340399,-6.772345741,6.792381513
11.196628,-0.416462819,-0.334644411,-5.919499517,5.943559766
11.20662,-1.042278469,-0.992701463,-4.448776261,4.675832634
11.216612,-1.778034784,-0.711371525,-2.148579272,2.878167825
11.226604,-2.097929813,0.315529351,-0.027114708,2.121698254
11.236596,-1.913270357,1.467200016,1.055951598,2.632168901
11.246588,-1.056474193,2.706957961,1.926413144,3.486377307
11.25658,0.026120243,3.864662222,2.73148937,4.732581804
11.266572,1.431065539,4.620807485,3.897566843,6.21215242
11.276564,2.674564387,4.278575216,6.270005597,8.048134611
11.286556,3.385193462,2.74411994,9.623240517,10.56392385
11.296548,3.717875766,0.628795538,13.55681159,14.07142937
11.30654,3.729196853,-1.319859537,17.45793822,17.90051801
11.316532,3.217121387,-3.094370205,19.55729212,20.06022612
11.326524,2.58659712,-4.51199548,19.35547079,20.04202678
11.336516,1.897023869,-4.808085617,17.41153238,18.16253965
11.346508,0.970891275,-3.984621651,14.09394851,14.67852936
11.3565,0.106197715,-2.543577108,10.12624315,10.44135349
11.366492,-0.400031265,-1.379722162,6.24614311,6.409209156
11.376483,-0.738602447,-0.68518974,2.738161043,2.91762651
11.386475,-0.931318416,-0.275238874,0.053297371,0.972600144
11.396467,-0.995985844,0.027740909,-1.860025027,2.110083046
11.406459,-1.000342239,0.095154554,-3.182724849,3.337585422
11.416451,-0.959485769,-0.016423111,-4.08367787,4.194914493
11.426443,-0.816291186,-0.146693448,-4.673504639,4.746524611
11.436435,-0.593951432,-0.190975984,-5.221309808,5.258452838
11.446427,-0.320127492,-0.089640648,-5.723803734,5.733449768
11.456419,-0.028088489,0.082652915,-6.163351214,6.163969391
11.466411,0.161106725,0.220492801,-6.612019181,6.617655937
11.476403,0.38430401,0.310640933,-7.08351,7.100725405
11.486395,0.690503251,0.381288454,-7.482263795,7.523725614
11.496387,0.89947046,0.486453624,-7.825055643,7.891589197
11.506379,1.073038551,0.63903182,-8.160809197,8.255820986
11.516371,1.338194213,0.836848973,-8.460650908,8.606607563
11.526363,1.674514655,1.076179602,-8.686323026,8.911474041
11.536355,1.98011865,1.278106032,-8.882849699,9.190181917
11.546347,2.104553246,1.403628941,-9.1408347,9.48441762
11.556339,2.106640702,1.444465311,-9.447250435,9.786467998
11.566331,2.056380376,1.475937657,-9.747420759,10.07071515
11.576323,2.125025518,1.570229418,-9.761334794,10.11261642
11.586315,2.165316488,1.539153513,-9.012971882,9.396342436
11.596306,2.19921616,1.246787029,-7.554009131,7.96580715
11.606298,2.186067818,0.843229162,-5.623133392,6.091761409
11.61629,1.727572144,0.257321343,-3.635219818,4.033056274
11.626282,0.843920595,0.007975456,-1.971356013,2.144413698
11.636274,-0.103728436,0.494725169,-0.568233587,0.760527442
11.646266,-1.075990226,1.703073187,0.883059956,2.199547256
11.656258,-1.916788042,2.815589873,2.215276122,4.063135615
11.66625,-2.195402021,3.437507915,3.325344286,5.262524615
11.676242,-0.936661236,3.180321059,4.214083643,5.361928502
11.686234,0.799665286,2.541103736,5.98699802,6.55292439
11.696226,2.326720544,1.881232001,8.547426512,9.056001452
11.706218,3.759544487,0.307725804,11.80397772,12.39204422
11.71621,3.965233454,-2.145655372,15.73147061,16.36478173
11.726202,3.698769989,-4.147699619,18.58991239,19.40281305
11.736194,3.568342582,-4.951843214,18.76707601,19.73466397
11.746186,3.406441366,-4.688189044,16.44561913,17.43678146
11.756178,2.862295092,-3.526429448,13.03770397,13.80616394
11.76617,2.113263844,-2.170599009,9.484522927,9.956583715
11.776162,1.600143773,-1.014815267,6.472801654,6.744440034
11.786154,1.151575209,-0.350356939,3.548393928,3.746995452
11.796146,0.476912503,-0.327004878,0.743657658,0.942021463
11.806138,-0.314201303,-0.730331999,-1.491508938,1.69017934
11.816129,-0.906218146,-0.928549248,-2.880890408,3.159582975
11.826121,-1.234742204,-0.763345817,-3.548648867,3.834083193
11.836113,-1.337903899,-0.548178002,-3.973814535,4.228674488
11.846105,-1.307113484,-0.28945669,-4.36037747,4.561274221
11.856097,-0.985120621,0.062398416,-4.692554868,4.795250503
11.866089,-0.81603727,0.214076688,-5.092047166,5.161462002
11.876081,-0.817133477,0.32770044,-5.572564917,5.641681881
11.886073,-0.771224356,0.495799156,-6.024516095,6.093882013
11.896065,-0.578686362,0.607929055,-6.413750623,6.468435104
11.906057,-0.366502015,0.722427002,-6.835719618,6.883551932
11.916049,-0.255845359,0.789227129,-7.299327221,7.346326578
11.926041,-0.165689919,0.729607675,-7.672350928,7.708744987
11.936033,-0.108792564,0.628487828,-7.890093053,7.91583231
11.946025,-0.102614542,0.584736476,-8.026820251,8.048744612
11.956017,-0.079356949,0.574107992,-8.180528347,8.201032957
11.966009,-0.042135913,0.635473935,-8.263598571,8.288103758
11.976001,0.004027855,0.674615197,-8.149713521,8.17758842
11.985993,0.00282786,0.688109474,-8.019004862,8.048474491
11.995985,-0.024222383,0.684380924,-8.055201466,8.084258447
12.005977,0.045004557,0.725466677,-7.92467641,7.957940909
12.015969,0.046288313,0.59919167,-7.033634419,7.059262455
12.02596,-0.25449436,-0.164818537,-5.15599524,5.164902656
12.035952,-1.043668279,-1.240252474,-2.584368746,3.050644439
12.045944,-2.96718157,-1.775449584,0.321933661,3.472755242
12.055936,-5.012845461,-0.837835106,3.028750704,5.916410914
12.06592808,-5.501948093,1.123352307,5.075138188,7.569040947
12.07592008,-3.812883081,2.701397552,6.540697183,8.038429309
12.08591208,-0.520520453,3.435885021,8.955624145,9.606219404
12.09590408,1.870034144,2.992177247,12.3924836,12.8850224
12.10589608,1.973752348,1.731320501,15.18383209,15.40915072
12.11588808,0.806904066,0.205283901,16.89949287,16.91999099
12.12588008,-0.175197784,-1.001447362,17.41172416,17.4413798
12.13587208,-0.54265348,-1.613518694,16.69600509,16.7825654
12.14586408,-0.573423575,-1.815039473,15.31719305,15.43501168
12.15585608,-0.628557118,-1.662240618,13.58101672,13.69679317
12.16584808,-0.841707863,-1.277681817,11.35846082,11.46104599
12.17584008,-1.187211357,-0.845465283,8.769357582,8.889652116
12.18583208,-1.529288675,-0.485856989,6.067194337,6.275797001
12.19582408,-1.756450226,-0.230749695,3.39513022,3.829526345
12.20581608,-1.870509084,-0.083437136,1.002759477,2.123980358
12.21580808,-1.909549482,-0.047702316,-1.038292422,2.174098868
12.22580008,-1.798534684,-0.069514039,-2.655398383,3.20791206
12.23579208,-1.63624419,-0.131230669,-3.932201071,4.261070499
12.24578308,-1.42781171,-0.109369538,-4.91907074,5.123267016
12.25577508,-1.195518277,-0.065069131,-5.578051359,5.705099027
12.26576708,-1.083231052,-0.271994346,-6.118420039,6.219520417
12.27575908,-0.895327634,-0.43178647,-6.400157016,6.476886672
12.28575108,-0.626464545,-0.481370567,-6.64378301,6.69059251
12.29574308,-0.491973761,-0.511860288,-7.085701536,7.121180056
12.30573508,-0.471695691,-0.552072321,-7.5776886,7.612400751
12.31572708,-0.352715816,-0.587735659,-7.95255418,7.982039817
12.32571908,-0.105650708,-0.6129107,-8.011149713,8.035256145
12.33571108,0.215003508,-0.611735994,-7.810459823,7.83732927
12.34570308,0.49831112,-0.545705434,-7.545745261,7.581845417
12.35569508,0.658594411,-0.370538348,-7.325298214,7.364172675
12.36568708,0.831800925,-0.153905294,-7.170307823,7.220034203
12.37567908,0.97830379,-0.051277889,-7.150711464,7.21750526
12.38567108,1.15923762,0.051617027,-7.110293171,7.204357373
12.39566308,1.572765063,0.271126473,-6.947522475,7.128475857
12.40565508,2.035872582,0.467844934,-6.517530515,6.844111342
12.41564708,2.220343758,0.497948008,-5.83632112,6.264225638
12.42563908,2.035430679,-0.051266925,-4.92271297,5.327167102
12.43563108,1.58836368,-1.004325069,-3.822975667,4.259895653
12.44562308,0.555676399,-1.112769578,-2.679294784,2.953921619
12.45561508,-0.954755737,0.103301589,-0.400646539,1.040551481
12.46560708,-3.134189158,1.950800419,3.424977917,5.035795636
12.47559808,-5.009909574,3.256380178,6.648489434,8.938994214
12.48559008,-3.864690288,4.120903876,6.96404846,8.96747739
12.49558208,-0.161796623,5.118864251,6.726166186,8.454008572
12.50557408,2.618434917,5.574511455,9.074393958,10.96704177
12.51556608,2.922582225,4.873439946,12.38600957,13.6273672
12.52555808,2.570846475,3.442604349,15.11180375,15.71074119
12.53555008,3.027290654,1.953709701,16.95619098,17.33475938
12.54554208,2.987160628,0.227091969,16.84939977,17.11364871
12.55553408,2.02112035,-1.042684558,15.28738394,15.45562119
12.56552608,0.558799689,-1.636328682,12.54317103,12.66179166
12.57551808,-0.754569585,-1.606042152,8.642509255,8.822795071
12.58551008,-1.710463922,-1.172768296,4.395459595,4.860158161
12.59550208,-2.227433653,-0.885006056,0.410710766,2.431744175
12.60549408,-2.302844024,-0.755888571,-2.79672734,3.700829899
12.61548608,-2.082870017,-0.680373827,-5.063518016,5.517288351
12.62547808,-1.706994769,-0.60587036,-6.534595029,6.780991242
12.63547008,-1.245058154,-0.597153623,-7.447941223,7.574865723
12.64546208,-0.747372759,-0.641132286,-8.043122288,8.103174242
12.65545408,-0.322331271,-0.71232316,-8.275501163,8.312353531
12.66544608,-0.025512133,-0.774246635,-8.15719094,8.193892406
12.67543808,0.160786224,-0.788508287,-7.885506497,7.926462656
12.68543008,0.284747781,-0.890445428,-7.593484853,7.650816072
12.69542108,0.456870441,-1.052578924,-7.352227566,7.44122995
12.70541308,0.612553288,-1.105047598,-7.186383573,7.2966061
12.71540508,0.720779842,-1.076352972,-7.028087751,7.146473027
12.72539708,0.704679972,-0.989263227,-7.031468026,7.135597956
12.73538908,0.76370469,-0.853027049,-7.075074221,7.167117638
12.74538108,0.963448793,-0.684709245,-7.100190936,7.197900504
12.75537308,1.340223489,-0.521729803,-7.251512784,7.392755822
12.76536508,1.587447129,-0.469938968,-7.229469366,7.416606929
12.77535708,1.864762733,-0.832531535,-6.948396633,7.242283106
12.78534908,2.196993925,-1.307621315,-6.041450801,6.56016643
12.79534108,2.308602946,-1.344987069,-4.574206054,5.297357719
12.80533308,1.747423295,-0.406097167,-2.765286276,3.296241992
12.81532508,0.116692444,0.900985181,0.423279356,1.002275828
12.82531708,-2.401100636,1.964266995,4.044514389,5.097227259
12.83530908,-3.746842873,3.222107016,5.509769914,7.401241088
12.84530108,-2.630182266,4.925192775,4.50447216,7.173956513
12.85529308,-0.618658293,7.024903357,2.960240632,7.648204355
12.86528508,0.890997844,8.363221092,3.303611355,9.036104923
12.87527708,1.46573675,7.517300895,6.018549596,9.740694853
12.88526908,1.278078989,5.155700541,9.276929229,10.69000233
12.89526108,1.238856743,2.300936516,12.95691533,13.21781865
12.90525308,1.161142716,-0.641404766,16.29767288,16.35156854
12.91524408,0.705438429,-2.807340621,16.72788762,16.97648458
12.92523608,0.169152494,-3.359094707,13.59722053,14.00701738
12.93522808,-0.19504338,-2.791134478,8.754015657,9.190280938
12.94522008,-0.424814433,-1.813715956,3.991255025,4.404560086
12.95521208,-0.510939059,-1.103039664,-0.093708647,1.219236045
12.96520408,-0.563295174,-0.882650944,-3.432362366,3.58852136
12.97519608,-0.53572833,-1.036526782,-5.994971868,6.107461037
12.98518808,-0.287526853,-1.223389615,-7.736910036,7.838311728
12.99518008,0.07374629,-1.229535258,-8.642135618,8.729473266
13.00517208,0.598165118,-1.020802523,-8.770705365,8.850147564
13.01516408,1.052042369,-0.901990609,-8.109077126,8.226634309
13.02515608,1.331045845,-0.909865786,-6.905671028,7.091391341
13.03514808,1.362420835,-0.871589181,-5.576863205,5.806656649
13.04514008,1.12711192,-0.715321685,-4.449107214,4.645064197
13.05513208,0.988514345,-0.648792431,-3.385917932,3.586437295
13.06512425,1.048688041,-0.622900375,-2.303501835,2.606505743
13.07511625,0.90582536,-0.22403943,-1.32256826,1.618610531
13.08510825,0.470818097,0.378887441,-0.687543683,0.91539155
13.09510025,0.225403585,0.959407197,-0.540047668,1.123797326
13.10509225,0.25953583,1.354530895,-0.884772606,1.638577235
13.11508425,0.368892649,1.630378556,-1.90645075,2.535502018
13.12507625,0.337577594,1.876093468,-3.145030189,3.677621544
13.13506825,0.37425747,2.055792,-4.420269915,4.889287834
13.14505925,0.557484942,2.170142049,-5.542602614,5.978356774
13.15505125,0.665109963,2.134432811,-6.223814347,6.613171684
13.16504325,0.621173254,1.991965548,-6.77180078,7.08597691
13.17503525,0.603678092,1.983630634,-6.967314715,7.269297907
13.18502725,0.571470605,1.820948377,-6.689160327,6.956097867
13.19501925,0.457319361,1.328747013,-5.930951289,6.095153223
13.20501125,0.147518965,0.72382339,-4.754961031,4.811999226
13.21500325,-0.409348657,0.230731093,-3.377414326,3.409945849
13.22499525,-1.341859394,0.01818009,-1.812502366,2.255234351
13.23498725,-2.715088515,0.054727125,0.099378693,2.717457787
13.24497925,-3.977564355,0.212785842,1.978652753,4.447624391
13.25497125,-4.859206946,0.606753216,3.106317528,5.799073218
13.26496325,-5.008610907,1.225306479,3.864664561,6.44384911
13.27495525,-3.971871798,2.159101337,4.282837543,6.22737357
13.28494725,-1.834575752,2.741352453,4.821700566,5.842043975
13.29493925,0.166752358,2.16725791,7.001841938,7.331480323
13.30493125,1.255517653,0.923887994,10.85085584,10.96225187
13.31492325,2.00989545,-0.493575606,15.22110224,15.36116044
13.32491525,3.162718016,-1.593164536,18.59727988,18.93144943
13.33490725,4.458989593,-2.550301406,20.14806438,20.79257377
13.34489925,5.288217158,-3.444584216,20.05292317,21.02260994
13.35489125,4.955624024,-3.969260431,18.24388937,19.31716173
13.36488325,3.75992134,-3.757300326,15.653008,16.53090964
13.37487425,2.517064663,-3.229880304,13.00054959,13.63018822
13.38486625,1.461082367,-2.874077817,9.915004299,10.42604408
13.39485825,0.647206081,-2.548432344,6.697970912,7.195567904
13.40485025,0.162146214,-1.95254552,3.738919603,4.221166332
13.41484225,-0.184866155,-1.409079862,1.187091781,1.851720403
13.42483425,-0.348747237,-0.894745251,-1.079491904,1.444817106
13.43482625,-0.387126022,-0.328322767,-2.987710267,3.030523888
13.44481825,-0.382764876,0.179634285,-4.501870149,4.521682459
13.45481025,-0.425689286,0.553619933,-5.712256068,5.754787206
13.46480225,-0.448852739,0.736760647,-6.678043601,6.73353929
13.47479425,-0.505704486,0.80336767,-7.308382219,7.369775254
13.48478625,-0.621532127,0.831746765,-7.743717949,7.813019426
13.49477825,-0.747987813,0.869494051,-8.0542893,8.135544346
13.50477025,-0.902582932,0.852034776,-8.318087604,8.410184338
13.51476225,-1.03581715,0.736821239,-8.59533158,8.688817392
13.52475425,-1.165817418,0.555801675,-8.932838715,9.025721758
13.53474625,-1.211011717,0.39951481,-9.145461017,9.233938417
13.54473825,-1.159970933,0.303312764,-9.162156572,9.240272954
13.55473025,-1.055381349,0.256282146,-9.114026971,9.178507393
13.56472225,-0.999254949,0.204128783,-9.043572115,9.100899715
13.57471425,-0.985659295,0.156247835,-8.970684818,9.026024803
13.58470625,-0.976639965,0.143887113,-8.816791365,8.871884754
13.59469825,-0.976742584,0.11703129,-8.615244273,8.671225766
13.60469025,-0.997394657,0.110722437,-8.506371456,8.565361108
13.61468125,-1.02170124,0.060164633,-8.397094597,8.459237015
13.62467325,-1.036674205,0.006435592,-8.323369979,8.387682792
13.63466525,-1.087624796,-0.053105874,-8.189790922,8.261865605
13.64465725,-1.090520922,-0.177203963,-8.112300112,8.187188176
13.65464925,-1.086538676,-0.39133207,-7.950879537,8.034313443
13.66464125,-1.047421972,-0.638825267,-7.690172072,7.787421718
13.67463325,-0.92038098,-0.744961587,-7.09538511,7.193508099
13.68462525,-0.693536202,-0.263050737,-6.539199711,6.581133718
13.69461725,-0.98571002,1.410986054,-6.372037171,6.600406321
13.70460925,-3.268775106,4.330212562,-6.547589296,8.503326238
13.71460125,-7.38767748,6.534883296,-6.506497988,11.81596354
13.72459325,-7.306692374,6.472070167,-5.047959745,10.98896461
13.73458525,-1.767514474,5.628332736,-2.332617461,6.343763947
13.74457725,4.712113219,4.444951305,2.749468973,7.03712887
13.75456925,10.04746712,1.914819723,11.79082616,15.60902661
13.76456125,14.75208304,-1.967159759,22.57908873,27.04272397
13.77455325,16.89021919,-7.028369586,27.77108411,33.25523411
13.78454525,15.94757669,-10.85647735,28.34903928,34.29076159
13.79453725,12.84285136,-11.85782824,26.82169743,32.01484616
13.80452925,8.643333127,-10.40149264,23.51495197,27.12657779
13.81452125,4.573183668,-7.908128205,18.4941771,20.62733834
13.82451325,1.108806042,-5.756629418,13.12207578,14.3720947
13.83450425,-1.613705513,-4.035041315,8.729434547,9.75133998
13.84449625,-3.504863162,-2.680328864,5.470492997,7.028123664
13.85448825,-4.185535782,-1.95697157,2.520794894,5.263350112
13.86448025,-3.701410884,-1.605090371,-0.276030094,4.04387812
13.87447225,-2.738206651,-1.322965286,-2.429936764,3.892634775
13.88446425,-1.776403996,-0.831990375,-3.829295338,4.302478579
13.89445625,-1.046375906,-0.203879107,-4.79706917,4.914096239
13.90444825,-0.538120938,0.426321516,-5.734315858,5.775266448
13.91444025,-0.218755301,0.876708418,-6.541646186,6.603756988
13.92443225,-0.070077491,1.097558046,-7.070074852,7.155103279
13.93442425,0.070610611,1.235474275,-7.523446904,7.624541682
13.94441625,0.118818784,1.089452928,-7.982724643,8.057600035
13.95440825,-0.026028296,0.789916881,-8.4154952,8.452526582
13.96440025,-0.015942726,0.86259631,-8.474267319,8.518070976
13.97439225,0.15522121,1.167885652,-8.316641588,8.399677245
13.98438425,0.346437295,1.453021103,-8.269749842,8.403573738
13.99437625,0.606653594,1.596327295,-8.260173857,8.434853974
14.00436825,0.876032188,1.60644751,-8.403155821,8.600065915
14.01436025,1.047277254,1.566543187,-8.671008584,8.873400536
14.02435225,1.192701308,1.565468615,-8.990492261,9.2033787
14.03434425,1.382390538,1.709218903,-9.23293244,9.49102072
14.04433625,1.62528183,2.000923921,-9.255002756,9.607305219
14.05432825,1.82726147,2.250274924,-9.13078743,9.579869561
14.06432025,2.087619418,2.717920906,-8.904187943,9.540954449
14.07431171,2.424878923,3.478751836,-8.96921015,9.921112984
14.08430371,2.75173857,4.196826171,-8.792330707,10.1237589
14.09429571,2.784055254,4.585923581,-7.128610743,8.92181315
14.10428771,2.03216574,4.980882826,-4.066173061,6.743341507
14.11427971,-1.312798732,4.824973545,1.830798304,5.325000718
14.12427171,-5.856274159,4.942353183,5.606687513,9.495143331
14.13426371,-9.170654916,4.32185806,10.57644601,14.65061701
14.14425571,-6.657077824,3.766732177,11.84493396,14.0999084
14.15424771,-0.533645406,3.491149395,11.07941882,11.62868965
14.16423971,4.815940474,3.835949469,13.76387787,15.07820032
14.17423171,8.171529483,3.592928662,19.31207861,21.27532398
14.18422371,8.998704091,1.735535174,24.09000692,25.77435142
14.19421571,8.277152417,-0.821397851,24.90552276,26.25778
14.20420771,6.556158975,-3.18763154,21.84857503,23.03268213
14.21419971,4.969429885,-4.552868979,17.78915024,19.02308376
14.22419171,3.500297656,-4.656903809,13.46158734,14.66810044
14.23418371,2.16931306,-4.165417852,9.646391982,10.7289097
14.24417571,1.417039238,-3.458563154,6.436958222,7.443392402
14.25416771,1.140354256,-2.788010018,3.195196375,4.391205708
14.26415971,1.031700783,-2.279674432,0.094923114,2.504063182
14.27415171,0.90061074,-2.008517407,-2.479975482,3.315949377
14.28414371,0.702456203,-1.881193555,-4.399725139,4.836312149
14.29413571,0.454809334,-1.834100958,-5.783948194,6.084803577
14.30412771,0.129901524,-1.833935774,-6.885299329,7.126537847
14.31411871,-0.154787712,-1.879541278,-7.695036955,7.922766461
14.32411071,-0.366977686,-1.967499482,-8.231965719,8.471775872
14.33410271,-0.512529356,-2.039690083,-8.655372545,8.907215943
14.34409471,-0.581236771,-2.068388802,-9.00453318,9.257304479
14.35408671,-0.69387841,-2.158669374,-9.279199703,9.552217954
14.36407871,-0.754588442,-2.25290354,-9.238600146,9.539219608
14.37407071,-0.532889726,-2.268310807,-8.907381692,9.207098022
14.38406271,-0.136487471,-2.1458093,-8.793217145,9.052281157
14.39405471,0.269584708,-1.978132205,-8.84440484,9.06692781
14.40404671,0.552592285,-1.913414491,-8.905964327,9.125936327
14.41403871,0.753871428,-1.935361723,-8.893425558,9.132741389
14.42403071,0.908870005,-1.905703768,-8.695996075,8.948636727
14.43402271,1.015615093,-1.733288966,-8.503036205,8.737127065
14.44401471,1.137203338,-1.462409392,-8.194845255,8.401628498
14.45400671,1.330590786,-1.106722095,-7.765694125,7.956212093
14.46399871,1.582248662,-0.754594582,-7.413392365,7.617828442
14.47399071,1.904581102,-0.490125895,-6.978143758,7.249975371
14.48398271,2.15438161,-0.255470699,-6.431872898,6.78790206
14.49397471,2.303412519,-0.090021978,-5.746165241,6.191302623
14.50396671,2.316219237,0.183648764,-4.71768737,5.25881855
14.51395871,2.198411875,0.70735902,-3.509323418,4.201038254
14.52395071,0.575480626,1.383219674,-1.7871465,2.332030709
14.53394271,-1.957465075,2.574472334,1.370906607,3.512685901
14.54393471,-2.931530803,3.741661947,4.923217585,6.843389392
14.55392571,-2.17676519,4.00002351,7.013470881,8.362252602
14.56391771,0.166567586,3.973134796,8.081693446,9.007070213
14.57390971,2.954416806,4.315723746,9.222257178,10.60207893
14.58390171,5.083590923,4.323860439,11.55426887,13.34315536
14.59389371,5.860192963,3.362928434,13.94145313,15.49242604
14.60388571,5.794579017,1.923224072,15.77105509,16.91159707
14.61387771,5.220124578,0.374980478,16.40112065,17.21589584
14.62386971,4.037197183,-1.077711427,15.50092075,16.05425075
14.63386171,2.519442141,-1.932999155,13.39707151,13.76828237
14.64385371,0.942814115,-2.111506902,10.3500313,10.60521135
14.65384571,-0.411981659,-1.78645419,6.973012242,7.209996337
14.66383771,-1.294142313,-1.147148136,3.756854768,4.135784196
14.67382971,-1.836674756,-0.485257503,0.662305346,2.011839301
14.68382171,-2.129162862,0.123983922,-2.00902553,2.929998308
14.69381371,-2.178501083,0.48106198,-4.009542777,4.588433379
14.70380571,-2.131275168,0.564117878,-5.336561937,5.774032918
14.71379771,-2.062291764,0.384327983,-6.02794958,6.382548978
14.72378971,-1.972682015,0.118272508,-6.384254928,6.683126043
14.73378171,-1.823012444,-0.103259928,-6.547709164,6.797538693
14.74377371,-1.622692683,-0.295092748,-6.663285813,6.864370991
14.75376571,-1.421194123,-0.448538889,-6.729356427,6.892402904
14.76375771,-1.225897413,-0.583471138,-6.679917049,6.816491386
14.77374971,-1.034935097,-0.677666128,-6.672684628,6.786386533
14.78374171,-0.867825182,-0.717791768,-6.699877689,6.793872726
14.79373271,-0.646797945,-0.694256871,-6.821465861,6.887142853
14.80372471,-0.479008584,-0.690816954,-7.03914542,7.089163952
14.81371671,-0.369963713,-0.693324971,-7.168922617,7.211866898
14.82370871,-0.258558614,-0.697377092,-7.139100063,7.177738995
14.83370071,-0.236013797,-0.709559912,-7.01868192,7.05840447
14.84369271,-0.258162757,-0.733139832,-6.918092853,6.961619837
14.85368471,-0.369878782,-0.733424153,-6.783287635,6.83284073
14.86367671,-0.667911218,-0.749995747,-6.675234599,6.750359691
14.87366871,-0.979059689,-0.844409861,-6.716687264,6.839990767
14.88366071,-1.129175403,-0.859072193,-6.896325424,7.040763202
14.89365271,-1.106581031,-0.815759089,-7.155786263,7.286649539
14.90364471,-1.11714388,-0.907376334,-7.253905465,7.395301668
14.91363671,-1.314781669,-1.309575454,-7.20462747,7.439777933
14.92362871,-1.829490867,-1.801057026,-7.147891937,7.594945845
14.93362071,-2.579655306,-1.901574172,-7.059101967,7.752517424
14.94361271,-3.848525076,-0.260510999,-7.475209129,8.411763356
14.95360471,-5.864212339,2.746514375,-7.469439681,9.885588335
14.96359671,-7.684689723,5.204819491,-6.94534848,11.59234521
14.97358871,-8.726246645,5.911591158,-6.802051935,12.54440916
14.98358071,-6.651011338,5.574610857,-6.457610003,10.81725312
14.99357271,-0.403740154,5.375224897,-2.824385254,6.085491013
15.00356471,6.916017677,5.763613333,3.152192443,9.538703075
15.01355671,12.54475913,5.969713651,8.703399235,16.39382875
15.02354871,16.45144763,4.560490825,12.92426448,21.41225859
15.03354071,18.95588494,1.037296788,15.31305673,24.39039288
15.04353171,19.5843811,-3.480905658,15.32542359,25.11042205
15.05352371,18.60486957,-7.491456202,15.28749387,25.21845666
15.06351571,15.68088986,-10.72536173,15.21662795,24.3406955
15.07350738,10.63402237,-12.73639344,14.38179057,21.95755109
15.08349938,5.320743465,-13.2100717,13.26692067,19.46349119
15.09349138,1.037848619,-11.92107406,12.30493207,17.16392991
15.10348338,-2.158971528,-9.619440996,11.38325184,15.05899152
15.11347538,-4.020439356,-7.153161448,10.20486481,13.09469042
15.12346738,-4.734177688,-5.200627037,8.139666835,10.75700405
15.13345938,-4.541176009,-3.65704689,4.986721855,7.672266052
15.14345138,-3.505125702,-2.355539716,1.316542119,4.423545715
15.15344338,-2.277999058,-1.271870561,-1.723058678,3.126638073
15.16343538,-1.393180698,-0.316435231,-3.774032133,4.035393693
15.17342738,-0.771347878,0.43108422,-4.790060697,4.870882121
15.18341938,-0.567088702,1.035769056,-5.237994254,5.36944978
15.19341138,-0.598362535,1.515467904,-5.386103057,5.627147308
15.20340338,-0.602064699,1.843710126,-5.33888679,5.680269456
15.21339538,-0.656953097,2.054055523,-5.247908208,5.673735279
15.22338738,-0.589204041,2.159063037,-5.180935954,5.64365236
15.23337938,-0.532432255,2.091653558,-5.140586073,5.575313792
15.24337138,-0.470436274,1.956860473,-5.078561733,5.462820011
15.25336338,-0.261209449,1.871680428,-4.993658992,5.339292849
15.26335538,-0.078531907,1.798773542,-4.877214616,5.198939885
15.27334738,0.061948034,1.724856551,-4.971287545,5.262382306
15.28333938,0.18795173,1.747007704,-5.196460896,5.485486999
15.29333038,0.381571459,1.856882148,-5.473753989,5.792718776
15.30332238,0.734826023,2.02413532,-5.625655296,6.023710699
15.31331438,1.225840987,2.163671082,-5.627836892,6.152780409
15.32330638,1.828146592,2.121212841,-5.294296508,5.989260338
15.33329838,2.418203449,2.125129306,-4.792262759,5.773184982
15.34329038,2.435950479,2.206024804,-4.292971938,5.406478357
15.35328238,1.872176857,2.137453775,-3.764636827,4.716592548
15.36327438,1.067670003,2.24822372,-2.96092885,3.868013545
15.37326638,-0.239717862,3.157637663,-0.517816554,3.208780804
15.38325838,-1.540838388,5.151418625,3.79283327,6.58003655
15.39325038,-1.347022631,6.601241593,7.45696757,10.0497376
15.40324238,0.878343154,5.31334089,9.51149087,10.9303036
15.41323438,3.504313524,2.721497648,12.92804178,13.66824886
15.42322638,3.916029719,0.154122007,16.71409286,17.16740932
15.43321838,2.608485295,-1.826354859,19.65685617,19.91310528
15.44321038,1.112482918,-3.1629712,21.11350986,21.37807998
15.45320238,-0.099694004,-3.935000425,19.98177893,20.36579624
15.46319438,-0.990821217,-4.076905333,16.67539131,17.19510277
15.47318638,-1.702325621,-3.640789876,12.50171427,13.13187432
15.48317837,-2.424979495,-2.897807572,8.250637633,9.074736118
15.49317038,-2.922587195,-2.170867396,4.224344922,5.576672052
15.50316238,-2.992744719,-1.486471708,0.654052586,3.404982214
15.51315438,-2.855360295,-0.806483724,-2.158640576,3.669227105
15.52314638,-2.61709415,-0.227790492,-4.240997792,4.988700489
15.53313838,-2.211267563,0.157475823,-5.745412704,6.158268427
15.54312938,-1.628272973,0.31446545,-6.71392504,6.915703206
15.55312138,-0.938319214,0.318458514,-7.327830643,7.394522345
15.56311338,-0.366359051,0.249990689,-7.636504573,7.649373594
15.57310538,0.046610056,0.123307545,-7.693144796,7.694274112
15.58309737,0.507999262,0.060269883,-7.561019357,7.578305182
15.59308938,0.927508882,0.083939412,-7.595333158,7.652215648
15.60308138,1.154166987,0.120176508,-7.880810013,7.965783721
15.61307338,1.196345146,0.091201361,-8.226811398,8.313842985
15.62306538,1.193310149,0.019135159,-8.503611571,8.586953186
15.63305738,1.189385133,-0.178768532,-8.736286315,8.818690025
15.64304938,1.208388876,-0.461736201,-8.93897069,9.0320873
15.65304138,1.16492199,-0.764047776,-9.093710235,9.199803155
15.66303338,1.138668504,-0.98654968,-9.1701006,9.293039935
15.67302537,1.167287847,-1.164818568,-9.238266855,9.384292072
15.68301738,1.317711855,-1.29520636,-9.343831902,9.524763443
15.69300938,1.482904176,-1.410232933,-9.436171131,9.65552108
15.70300138,1.539866727,-1.435608387,-9.401663788,9.634492356
15.71299338,1.570376475,-1.376697982,-9.293858673,9.525606996
15.72298538,1.607893088,-1.295766085,-9.093073474,9.324608041
15.73297738,1.848789602,-1.35282994,-8.748107631,9.043094545
15.74296938,2.116372808,-1.534642971,-8.22215643,8.627747056
15.75296138,2.264562888,-1.66301479,-7.319357443,7.840080142
15.76295338,1.525525846,-1.764908955,-4.493778772,5.063218381
15.77294538,-0.196826342,-1.532464298,-1.019221728,1.850945803
15.78293738,-1.602323323,-1.047270237,1.626229956,2.511740204
15.79292938,-2.90878455,0.278387691,4.572775825,5.42667541
15.80292038,-3.072531146,2.899222013,4.10296608,5.88899538
15.81291238,-1.880796968,5.989543898,3.16946161,7.032604087
15.82290438,0.538080373,7.261054856,6.377223067,9.678916372
15.83289638,3.0053443,6.033507943,14.12755129,15.65321111
15.84288838,3.785159677,2.83850628,21.62567215,22.13716892
15.85288038,3.042486106,-0.995077406,26.25676518,26.45117424
15.86287238,2.06418904,-4.057189691,27.65172139,28.02390694
15.87286438,1.138422482,-5.415601675,24.4267083,25.04573468
15.88285638,0.208141655,-4.866834639,18.61631959,19.24309635
15.89284838,-0.505857244,-3.36463699,13.2520243,13.68184278
15.90284038,-0.868931768,-1.899094952,9.113757999,9.349983365
15.91283238,-0.91487875,-0.685827525,5.733806566,5.846699946
15.92282438,-0.932321579,0.134387434,2.724035924,2.882300336
15.93281638,-1.142010041,0.487467751,0.244712992,1.265581365
15.94280838,-1.44924117,0.394090056,-1.758799784,2.312786981
15.95280038,-1.454893674,0.120677176,-3.086074467,3.413961658
15.96279238,-1.207343174,-0.1164511,-4.043218061,4.221238052
15.97278438,-0.907074398,-0.35100017,-4.757549009,4.855950747
15.98277638,-0.592073269,-0.495494809,-5.404427646,5.459295196
15.99276838,-0.267808251,-0.472087527,-6.025317748,6.049714196
16.00276038,0.060444349,-0.432229251,-6.52656037,6.541136438
16.01275238,0.466661311,-0.453183333,-6.806845483,6.837857364
16.02274438,0.888970541,-0.526963208,-6.816065957,6.893962139
16.03273638,1.157817331,-0.724413594,-6.733167057,6.870287814
16.04272838,1.226511078,-0.950145646,-6.738800265,6.915094734
16.05272038,1.242469299,-1.125791034,-6.737878159,6.943352036
16.06271138,1.26019601,-1.302493014,-6.677963494,6.919521549
16.07270333,1.251783621,-1.475424417,-6.568203655,6.847272355
16.08269533,1.21844309,-1.695500166,-6.483936507,6.811810112
16.09268733,1.233744669,-1.995537173,-6.457150996,6.870159642
16.10267933,1.270275295,-2.427063735,-6.573253895,7.12122914
16.11267133,1.352148301,-2.828582386,-6.791954378,7.480630162
16.12266333,1.485040602,-3.214146324,-6.796408203,7.663370449
16.13265533,1.74081711,-3.737817988,-6.501028503,7.698382889
16.14264733,1.975878688,-4.111405659,-6.260750039,7.746272919
16.15263933,2.215264428,-4.225364676,-6.150159311,7.783672827
16.16263133,2.292187766,-4.302771871,-6.299656827,7.965779728
16.17262333,2.115995224,-4.132992117,-6.694194195,8.146858017
16.18261533,1.857675762,-3.265964057,-7.507071192,8.394855468
16.19260733,1.226051487,-1.625145882,-8.765852176,8.999136945
16.20259933,-0.162422787,-0.207721167,-9.77062368,9.774181109
16.21259133,-2.012559587,0.939772101,-10.68433416,10.91277069
16.22258333,-3.900433733,2.588297198,-11.41191723,12.3346877
16.23257533,-5.205551562,4.323338867,-9.878260396,11.97368174
16.24256733,-5.292730624,4.436729828,-4.109605594,8.036568121
16.25255933,-3.966240052,2.548374749,6.31669386,7.881998181
16.26255133,-0.363671817,1.215273022,18.59282664,18.6360497
16.27254333,3.842035836,0.067208481,21.79901871,22.13510725
16.28253533,4.422897362,-1.657938237,28.19782794,28.5907027
16.29252733,4.698331332,-2.017089425,28.5597893,29.01386792
16.30251933,3.152704367,-1.535299613,24.28440813,24.53628268
16.31251133,1.82655381,-0.575773863,18.57000145,18.66849668
16.32250233,1.142948665,0.318388786,13.57387844,13.62563316
16.33249433,0.437193683,1.189915694,10.10682572,10.18601805
16.34248633,-0.084618566,1.874107169,7.373950557,7.608849111
16.35247833,-0.571602606,2.209388268,4.980620286,5.478567741
16.36247033,-0.920789262,2.173740718,3.20946709,3.984178783
16.37246233,-1.105072888,1.897910599,1.749389859,2.807777699
16.38245433,-1.206014687,1.464292488,0.3226593,1.924248669
16.39244633,-1.13757639,0.979362721,-0.959321682,1.78144028
16.40243833,-1.022343411,0.535692077,-1.997393664,2.306888272
16.41243033,-0.877822752,0.111967455,-2.826668007,2.961952315
16.42242233,-0.678971373,-0.131528731,-3.577378576,3.643616255
16.43241433,-0.600337432,-0.315887055,-4.126123393,4.18151694
16.44240633,-0.701432136,-0.721023963,-4.567968829,4.677416147
16.45239833,-0.677188703,-0.976965655,-4.946512892,5.087340781
16.46239033,-0.51558745,-1.111756547,-5.268883924,5.409525936
16.47238233,-0.308928137,-1.152070468,-5.700907792,5.824349973
16.48237433,-0.176144886,-1.152314589,-6.161930925,6.271223857
16.49236633,-0.142831252,-1.042528438,-6.631281078,6.714250148
16.50235833,-0.099016311,-0.868150726,-6.989899585,7.044301678
16.51235033,0.014785416,-0.700929421,-7.246446757,7.280282361
16.52234233,0.144583078,-0.524058457,-7.43091764,7.45077704
16.53233433,0.236516511,-0.505851105,-7.464057904,7.48491722
16.54232633,0.294832693,-0.738657996,-7.333922272,7.376920621
16.55231833,0.316116119,-1.008741179,-7.175577334,7.253026833
16.56231033,0.42523218,-1.074481717,-7.097077294,7.190538192
16.57230233,0.636157036,-1.099835829,-7.084985837,7.198010762
16.58229333,0.924292475,-1.106013997,-7.12872184,7.272981412
16.59228633,1.284194591,-0.999490299,-7.308281647,7.487263668
16.60227733,1.574909675,-0.936034853,-7.608059038,7.825539218
16.61226933,1.648842601,-0.841356737,-7.887825503,8.102120355
16.62226133,1.415372635,-0.683603829,-8.047974892,8.200030107
16.63225333,0.714297472,-0.485199616,-7.969359078,8.01600422
16.64224533,-1.164588626,-0.486236912,-6.696251246,6.814137785
16.65223733,-4.640383671,-0.475648482,-1.892447838,5.033960758
16.66222933,-6.388571928,0.44202933,-0.435600609,6.418643867
16.67222133,-6.748199664,1.349314009,-0.168378761,6.883836024
16.68221333,-6.356207589,2.590677015,-0.594320939,6.889571807
16.69220533,-4.942114032,3.811340877,-0.150137787,6.242864066
16.70219733,-3.464791024,3.961102396,2.97963877,6.047590944
16.71218933,-1.511393857,3.126573452,7.294271134,8.078747695
16.72218133,1.589943744,2.512202703,12.31416834,12.66798427
16.73217333,4.151867807,1.99453116,16.37201438,17.0076164
16.74216533,5.965378525,1.489727876,18.23433853,19.2430801
16.75215733,6.901168088,0.828701901,17.69967615,19.01555688
16.76214933,7.08182951,0.451320556,15.98540583,17.48968837
16.77214133,6.588316323,0.608971138,14.10202001,15.57702559
16.78213333,5.477420193,0.958101076,12.53963931,13.71723892
16.79212533,4.456855944,1.183330852,11.3817877,12.28042866
16.80211733,3.798723755,1.133101516,9.957424679,10.71748699
16.81210933,3.276916184,0.952865479,7.98477994,8.683481041
16.82210133,2.82898789,1.028603732,5.821333537,6.553557986
16.83209333,2.395348145,1.26889696,3.583650885,4.493366877
16.84208533,1.966252563,1.440554985,1.449359869,2.835840587
16.85207733,1.565709666,1.427516864,-0.407902349,2.157692166
16.86206833,1.148820293,1.208492445,-1.871212505,2.506327651
16.87206033,0.727658652,0.783872029,-2.973732498,3.160225853
16.88205233,0.224091689,0.23006981,-4.029767711,4.042545857
16.89204433,-0.407401937,-0.47817806,-5.12563942,5.163991679
16.90203633,-0.970518515,-1.220228464,-6.035713513,6.2338352
16.91202833,-1.383376525,-1.725617858,-6.453523968,6.821983525
16.92202033,-1.27802037,-1.872291023,-6.46972251,6.855371551
16.93201233,-0.794840748,-1.939734563,-6.667605736,6.989371091
16.94200433,-0.34662404,-2.002453845,-6.944507065,7.235754833
16.95199633,-0.079690387,-2.017343048,-7.060362627,7.343346918
16.96198833,0.177541859,-1.869837678,-7.266264725,7.505092744
16.97198033,0.423847779,-1.706504479,-7.704221762,7.902331139
16.98197233,0.642971308,-1.597877977,-8.139087961,8.319337652
16.99196433,0.922002486,-1.442450653,-8.423327546,8.59553369
17.00195633,1.283553883,-1.221594008,-8.54966658,8.731357347
17.01194833,1.656945088,-0.958784177,-8.34040935,8.557287084
17.02194033,2.057821422,-0.735064589,-7.716562895,8.019993259
17.03193233,2.474869985,-0.625338079,-7.071522623,7.518142148
17.04192433,3.000069819,-0.476364473,-6.483158242,7.15951694
17.05191633,3.43498455,-0.292711031,-5.737329513,6.693410831
17.06190833,3.916107194,-0.070548703,-4.766895198,6.169616075
17.07190088,4.193890284,0.453231134,-3.746055545,5.64154822
17.08189288,3.389436494,1.31292854,-2.630720209,4.4869533
17.09188488,1.32482967,1.772897421,-0.837928807,2.366529866
17.10187688,-0.659512277,1.770838324,0.672728008,2.005838424
17.11186888,-1.289983774,1.854991451,1.415074135,2.665986914
17.12185988,-0.259299456,2.170494344,1.736283326,2.791587665
17.13185188,0.990763695,2.484327857,2.453910348,3.629762196
17.14184388,1.359054008,2.357934443,4.455114058,5.220624858
17.15183588,1.09755695,1.472534723,7.144212284,7.376500453
17.16182788,1.096054288,0.272277059,9.984544065,10.04821327
17.17181988,1.489853153,-0.610889902,12.33326066,12.43793261
17.18181188,1.493670361,-1.171895453,13.36009021,13.49430993
17.19180388,0.720080807,-1.613185695,13.12168987,13.24007664
17.20179588,-0.351013106,-1.802600107,12.0961701,12.23478273
17.21178788,-1.183343351,-1.695115273,10.28925183,10.49487591
17.22177988,-1.775327085,-1.457332693,7.874933562,8.203059395
17.23177187,-2.185998967,-1.003878488,5.454476303,5.961348442
17.24176388,-2.278801442,-0.658473081,3.300063849,4.064104356
17.25175588,-2.165742604,-0.343822858,1.566021177,2.694638661
17.26174788,-1.998268846,-0.005779534,0.19769787,2.008032926
17.27173988,-1.776403703,0.173022839,-1.050817743,2.071174775
17.28173188,-1.598733717,0.207935321,-2.203540176,2.73034355
17.29172388,-1.478495375,0.029021412,-3.269989865,3.588819379
17.30171588,-1.485934349,-0.204739233,-4.079063247,4.346110447
17.31170788,-1.372062455,-0.352380039,-4.733638574,4.941058715
17.32169987,-1.174598913,-0.54032658,-5.322441496,5.4772273
17.33169188,-1.069088684,-0.625162444,-5.78091232,5.912083046
17.34168388,-1.015511158,-0.668254303,-6.15363665,6.272564926
17.35167588,-1.054292743,-0.642026398,-6.426115145,6.543598929
17.36166788,-1.028504329,-0.585509039,-6.595987285,6.701320038
17.37165988,-0.835488764,-0.496994254,-6.734703705,6.804504299
17.38165188,-0.56407099,-0.28404553,-6.906137636,6.934954578
17.39164388,-0.244344836,-0.025293228,-7.133084448,7.137313072
17.40163588,0.064446988,0.231975636,-7.270133827,7.274119327
17.41162688,0.361774322,0.525101673,-7.268703014,7.296619486
17.42161887,0.603430974,0.672084156,-7.305732261,7.361355169
17.43161088,0.774414012,0.702671015,-7.458305998,7.531254343
17.44160288,0.970817673,0.780989644,-7.567980468,7.669860503
17.45159488,1.295840491,0.99754917,-7.402318908,7.580806826
17.46158688,1.467106899,1.197073271,-7.048078796,7.297999848
17.47157888,1.338643864,1.202562198,-6.775355887,7.010247545
17.48157088,0.95892758,1.162397089,-6.155860931,6.337612555
17.49156288,0.48179449,1.002966177,-4.601264629,4.73388881
17.50155488,-0.273592317,1.070539232,-2.06613587,2.343037438
17.51154688,-1.698986861,1.639365872,0.763195544,2.481238452
17.52153888,-3.608330812,2.157328753,2.724018967,5.009430899
17.53153088,-4.420820723,2.551887463,2.827703549,5.835382837
17.54152288,-2.903334652,4.026733006,3.338279496,5.982310658
17.55151488,0.025053711,5.821667413,6.318392476,8.59153785
17.56150688,2.871951769,5.895624166,10.56910191,12.4383442
17.57149888,5.36118924,4.83725913,15.41691146,17.02417648
17.58149088,7.134111804,3.543337256,20.04370328,21.56851481
17.59148288,7.1007932,1.379494705,22.92996845,24.04387079
17.60147488,5.910802953,-0.775905929,23.48970135,24.23439067
17.61146688,4.012794121,-2.150075721,21.75041431,22.22174307
17.62145888,2.241312312,-2.739078763,18.24589029,18.58597713
17.63145088,1.167381402,-2.528573737,14.0336684,14.30735172
17.64144288,0.497748618,-1.799397294,10.1442631,10.3146332
17.65143488,0.001895083,-0.960476507,6.509253781,6.579734303
17.66142688,-0.32181467,-0.25059836,3.544772163,3.568161138
17.67141888,-0.602775721,0.148084829,1.124687957,1.284597481
17.68140988,-0.824341047,0.251897612,-0.852234605,1.212144542
17.69140188,-0.989044248,0.146163727,-2.446394922,2.642805418
17.70139388,-1.083794724,-0.090132052,-3.669893222,3.827643015
17.71138588,-1.069969275,-0.359954596,-4.542751542,4.680917979
17.72137788,-0.972016206,-0.651981356,-5.155227501,5.286422777
17.73136988,-0.844754262,-0.99808229,-5.645697797,5.795142935
17.74136188,-0.781886169,-1.418111617,-6.089111456,6.300767006
17.75135388,-0.756140805,-1.742317798,-6.440139692,6.714374094
17.76134588,-0.622275527,-1.89545623,-6.756323785,7.044706682
17.77133788,-0.460762713,-1.996715826,-7.045732893,7.337678677
17.78132988,-0.240911498,-2.055891548,-7.254318278,7.543862545
17.79132188,0.017491653,-2.066927145,-7.495649241,7.775426118
17.80131388,0.237787988,-2.055761448,-7.789494047,8.059709409
17.81130588,0.442127198,-2.025005971,-8.040446602,8.303307004
17.82129788,0.653608563,-1.930634541,-8.216557136,8.465598919
17.83128988,0.845387077,-1.800550658,-8.351448893,8.585066138
17.84128188,1.060524925,-1.608197143,-8.512330354,8.727587251
17.85127388,1.292812218,-1.343660044,-8.696066242,8.893725531
17.86126588,1.537736879,-1.026475784,-8.873012928,9.063589005
17.87125787,1.988573139,-0.684984649,-8.847443054,9.094002182
17.88124988,2.608769762,-0.263351284,-8.344036378,8.746312174
17.89124188,3.388544501,0.39012769,-7.624601396,8.352782763
17.90123388,4.285382252,0.813892658,-7.343303545,8.541137469
17.91122588,4.574710376,0.640640827,-7.52336095,8.82832689
17.92121788,3.429238783,0.092930675,-7.479767618,8.228926927
17.93120988,1.174200571,0.318529119,-6.82061743,6.928277557
17.94120188,-0.652364933,2.143372911,-4.948078192,5.431676098
17.95119388,-1.633780758,3.88168142,-3.372334265,5.395306164
17.96118488,-1.781234381,3.848805742,-1.923843293,4.6569598
17.97117687,-0.88094648,2.747565705,1.812211175,3.40724131
17.98116888,0.514488027,2.02661834,7.248897325,7.544427894
17.99116088,1.670803281,1.236715054,12.51219365,12.6836918
18.00115288,2.378994652,-0.234718346,16.64722411,16.81798973
18.01114488,2.20144161,-1.360793847,18.81548745,18.99264786
18.02113688,1.366406151,-1.506873374,18.52777052,18.63909906
18.03112888,0.623057081,-1.322277507,16.79176026,16.85526121
18.04112088,0.14827998,-1.133658755,14.62883309,14.67344291
18.05111288,-0.382120367,-0.768698943,11.95380677,11.98459054
18.06110487,-0.91314622,-0.2956744,9.294093731,9.343523835
18.07109675,-1.382746342,0.117304355,6.405238246,6.553840458
18.08108875,-1.927284964,0.29463228,3.385463603,3.906737682
18.09108075,-2.536718909,0.295997751,0.817826664,2.681678195
18.10107275,-3.072486123,0.141082643,-0.951842508,3.219639646
18.11106475,-3.221588953,0.056111343,-2.008309831,3.796721249
18.12105675,-3.003432553,0.104967754,-2.597063636,3.971947237
18.13104875,-2.665036056,0.19153929,-3.084490457,4.080831515
18.14104075,-2.246564281,0.309137102,-3.494448686,4.165787853
18.15103275,-1.814380931,0.418754123,-3.769491186,4.20433074
18.16102475,-1.436542918,0.50232326,-4.054885011,4.331059531
18.17101675,-1.098761257,0.553817569,-4.347693105,4.518453888
18.18100875,-0.875217232,0.522505363,-4.658251593,4.768471973
18.19100075,-0.724919816,0.588333537,-5.003696907,5.090051849
18.20099275,-0.549841462,0.668778506,-5.347389811,5.417025763
18.21098475,-0.45527956,0.725132217,-5.588005659,5.653220627
18.22097675,-0.392726047,0.690017859,-5.788078668,5.842278071
18.23096875,-0.383105184,0.552705136,-5.911508127,5.949637039
18.24096075,-0.487655593,0.319082412,-5.975467896,6.00381863
18.25095275,-0.602564198,0.064809296,-5.969846383,6.000529118
18.26094375,-0.664047232,-0.150024936,-5.957563722,5.996334856
18.27093575,-0.639861101,-0.230571574,-6.068329282,6.106325061
18.28092775,-0.547724331,-0.173026639,-6.314028699,6.34010241
18.29091975,-0.444882772,-0.200610368,-6.702873217,6.720615639
18.30091175,-0.41965379,-0.184148117,-6.892263948,6.907483055
18.31090375,-0.475170618,0.03132675,-6.841342885,6.857896249
18.32089575,-0.755179011,0.354403688,-6.983250716,7.032900389
18.33088775,-1.107898993,0.427666084,-6.952278015,7.052978666
18.34087975,-1.413225538,0.431360939,-6.243795453,6.41624971
18.35087175,-1.989499338,0.669525634,-4.87150364,5.30451882
18.36086375,-2.863247311,0.766911596,-3.295850345,4.432715653
18.37085575,-3.640332331,1.019330779,-1.837241936,4.203155083
18.38084775,-2.799485471,1.865320996,-0.632250658,3.422905523
18.39083975,0.671317367,3.587927538,1.399731041,3.909365423
18.40083175,4.993101168,5.366052954,5.092177559,8.925012934
18.41082375,8.441139919,5.308718666,10.60836479,14.55928366
18.42081575,10.69172036,2.010787589,19.02465521,21.91560305
18.43080775,10.63349262,-2.372363763,27.15774861,29.26162307
18.44079975,8.148707215,-5.759693944,28.95705849,30.62820171
18.45079175,4.70246853,-6.936103447,25.44721584,26.79148251
18.46078375,2.507329341,-6.664586819,20.59731766,21.79341443
18.47077575,2.032116477,-5.733428251,16.15098261,17.2585033
18.48076775,1.970589443,-4.418955461,12.46921545,13.37504108
18.49075975,1.683389851,-3.017522296,8.90176778,9.548859189
18.50075175,1.198349718,-2.019475674,5.393839508,5.882841888
18.51074375,0.624904508,-1.379992595,2.024970887,2.528911288
18.52073575,0.040423556,-0.931751987,-1.002928462,1.369547856
18.53072775,-0.444105384,-0.597234534,-3.435815731,3.515501162
18.54071975,-0.699754716,-0.282129178,-5.180775155,5.235425937
18.55071075,-0.685482686,0.039326107,-6.34206259,6.379121487
18.56070275,-0.477853978,0.293486627,-7.057021528,7.079267735
18.57069475,-0.299623755,0.285051325,-7.5662532,7.577546842
18.58068675,-0.339546315,0.112330056,-7.894739835,7.90283663
18.59067875,-0.340918327,-0.100197449,-8.002990508,8.010875227
18.60067075,-0.230951095,-0.298134616,-7.900793458,7.909788867
18.61066275,-0.144753232,-0.530956783,-7.782645203,7.802078887
18.62065475,-0.073554538,-0.718215545,-7.723494769,7.757165416
18.63064675,0.011082228,-0.852712615,-7.781985637,7.828572161
18.64063875,0.060664058,-0.947132576,-7.923693493,7.980329493
18.65063075,0.084065419,-1.043750506,-8.121861479,8.189085174
18.66062275,-0.00069136,-1.22788532,-8.359071908,8.448774231
18.67061475,-0.146734561,-1.312267951,-8.553592401,8.654913123
18.68060675,-0.190069519,-1.366535521,-8.694391599,8.803180734
18.69059875,-0.125750658,-1.353838438,-8.751506617,8.856498169
18.70059075,-0.051048239,-1.359470623,-8.730323909,8.835684572
18.71058275,-0.020390703,-1.504874504,-8.863300703,8.990170321
18.72057475,-0.064069988,-1.698566738,-9.35026033,9.503504731
18.73056675,0.00538894,-1.704231813,-9.871634331,10.01766437
18.74055875,0.345883271,-1.323352664,-10.34260299,10.4326571
18.75055075,0.629968928,-0.354252391,-10.94443585,10.96827387
18.76054275,0.694857965,1.100693031,-11.44600767,11.51978491
18.77053475,0.488239876,2.665878055,-11.4786059,11.7942222
18.78052675,-0.422054511,3.394441418,-9.549623487,10.14375036
18.79051875,-1.81295918,3.04644204,-4.513184511,5.739029928
18.80051075,-1.795347366,2.225598504,2.858002651,4.04286285
18.81050275,1.119841054,2.233931079,10.77479643,11.06077439
18.82049475,5.957830939,2.678227375,17.28195574,18.47524413
18.83048675,9.324952412,2.128362816,21.92152255,23.91731207
18.84047775,9.766729435,0.651529366,25.0180115,26.86474257
18.85046975,7.636419788,-0.845359595,25.27549247,26.41741962
18.86046175,4.846831899,-1.862486558,22.48473338,23.07647874
18.87045375,2.770627415,-2.209868471,18.61996942,18.95423847
18.88044575,1.183020365,-1.787914678,15.13870562,15.28975421
18.89043775,-0.127181618,-1.146144169,12.38954245,12.44309382
18.90042975,-1.150670791,-0.732148875,9.218833634,9.319172646
18.91042175,-1.962907956,-0.402520498,5.488579604,5.842904797
18.92041375,-2.405217514,-0.085868262,1.95272503,3.099286965
18.93040575,-2.603209645,0.301526439,-0.951922615,2.788149084
18.94039775,-2.818677202,0.706030313,-3.39826959,4.47120299
18.95038975,-2.844075753,1.001266683,-5.408696698,6.192358342
18.96038175,-2.576344612,1.052856155,-6.483800266,7.05589991
18.97037375,-2.312898896,1.142748471,-6.844171768,7.314236978
18.98036575,-2.094188764,1.298463113,-7.252422611,7.659586592
18.99035775,-1.741292928,1.442964769,-7.66627801,7.99287601
19.00034975,-1.46130193,1.487748009,-7.786364032,8.060785465
19.01034175,-1.245542888,1.429592187,-7.571774141,7.805566895
19.02033375,-1.100915225,1.357912047,-7.117733753,7.329261439
19.03032575,-1.000135101,1.305528304,-6.625252599,6.82632012
19.04031775,-0.955530786,1.260734247,-6.326751071,6.521523521
19.05030975,-0.874487207,1.185865182,-6.005024986,6.183148809
19.06030175,-0.802299091,1.046301938,-5.526236258,5.681348322
19.07029408,-0.640897082,0.919005861,-5.006103621,5.129950712
19.08028608,-0.265625412,0.892614014,-4.52063211,4.615564029
19.09027808,0.160727533,0.983069564,-4.130723982,4.249133997
19.10027008,0.737046211,1.293623081,-3.633694865,3.926886319
19.11026208,1.680827748,1.843032433,-3.020347086,3.91719887
19.12025408,2.857783381,2.405105978,-2.458289328,4.471537436
19.13024608,3.930113615,2.590392548,-2.648426163,5.400933967
19.14023808,4.139146312,2.014741184,-3.340850517,5.687969445
19.15022908,3.156519675,1.266884202,-3.970573424,5.228199054
19.16022108,1.192608337,0.801465863,-3.575751881,3.853655886
19.17021308,-1.859870368,0.951144351,-1.943033854,2.85292375
19.18020508,-5.215498846,1.568732238,0.128096123,5.447821368
19.19019708,-6.763604738,1.254234189,0.425882537,6.892084474
19.20018908,-5.404694864,1.338477072,-1.020330361,5.660682069
19.21018108,-2.238164902,3.63903922,-1.194246435,4.436013201
19.22017308,0.855214127,5.208616088,2.05493202,5.664257971
19.23016508,2.385806074,3.531180018,8.220197613,9.259209023
19.24015708,2.193058018,-0.093492739,14.37665437,14.54326082
19.25014908,1.372225885,-3.70706865,19.45606746,19.85356197
19.26014108,-0.21030951,-6.768566101,22.39734557,23.3986924
19.27013308,-1.908933331,-8.681264015,22.08632983,23.80786292
19.28012508,-2.796088531,-8.870074117,19.16993279,21.30686859
19.29011708,-2.742937049,-7.450243857,15.07154099,17.03470531
19.30010908,-2.259618774,-5.22620919,10.56496442,12.00156709
19.31010108,-1.520762266,-3.128958532,6.38581672,7.271984223
19.32009308,-0.902180717,-1.461918372,2.78536503,3.272521005
19.33008508,-0.692467404,-0.292048834,-0.195826176,0.776628301
19.34007708,-0.848654355,0.396191911,-2.58275433,2.747326368
19.35006908,-1.135789627,0.674283075,-4.432637361,4.625251314
19.36006108,-1.323683031,0.672882301,-5.677104946,5.868085542
