Time (s),Linear Acceleration x (m/s^2),Linear Acceleration y (m/s^2),Linear Acceleration z (m/s^2),Absolute acceleration (m/s^2)
0.012742,0.079630599,0.073197017,-0.307267089,0.325748215
0.022735,0.308118298,-0.040852943,-1.315031199,1.351263447
0.032729,-0.28277398,0.060910811,-0.662460297,0.722858836
0.042723,-0.931834506,0.267195883,0.567851179,1.12346079
0.052716,-0.802550083,-0.033990102,1.063878084,1.333071093
0.06271,-0.142812103,-0.31938347,0.735358704,0.814342386
0.072703,0.090911778,-0.376828271,0.500904068,0.633379335
0.082697,-0.174079504,-0.412434197,-0.11706652,0.462720445
0.092691,-0.509735118,-0.347754161,-0.623003871,0.876867532
0.102684417,-0.749068525,-0.189401621,-0.686194146,1.033362973
0.112678417,-0.555817463,-0.089112983,-0.458183141,0.725814002
0.122671417,-0.25876312,-0.018099325,-0.236104721,0.350758289
0.132665417,-0.190903697,0.007109246,-0.174413087,0.258678735
0.142659417,-0.253966503,0.000862135,-0.29718532,0.390920507
0.152652417,-0.295224164,-0.033003147,-0.378401392,0.481076011
0.162646417,-0.331212753,-0.154278895,-0.246438505,0.44072191
0.172639417,-0.399881723,-0.484096721,0.641841846,0.897895307
0.182633417,-0.292565874,-0.798547517,2.044440361,2.214273994
0.192627417,0.04940561,-0.700295072,1.372833264,1.54192259
0.202620417,0.793087241,-0.457908833,-0.205362985,0.93853174
0.212614417,0.429145722,0.095813572,-0.9614986,1.057272836
0.222607417,-0.054056778,0.505365091,-0.888350517,1.023465999
0.232601417,-0.207588289,0.920015529,-0.848545597,1.26868085
0.242595417,0.103385936,1.318620074,-0.041270818,1.323310557
0.252588417,0.652473838,1.391125986,0.453843337,1.602163348
0.262582417,0.920421252,1.110584181,0.621881205,1.570766927
0.272575417,0.879983736,0.784421375,0.211234174,1.197626046
0.282569417,0.856676808,0.83767533,-0.253618301,1.224711131
0.292563417,1.129077535,1.166273501,-0.443641115,1.682803434
0.302556417,1.225069009,1.398324201,-0.718138654,1.992944498
0.312550417,0.965484209,1.21715736,-1.013090338,1.85471934
0.322543417,0.640695572,0.991104076,-1.141108108,1.641616831
0.332537417,0.314527431,0.873121225,-1.054804959,1.404948996
0.342530417,-0.05600412,0.775952999,-1.176872018,1.410768324
0.352524417,-0.229684551,0.681011758,-1.245835249,1.438275869
0.362518417,-0.420373583,0.441726664,-1.68277487,1.789851295
0.372511417,-0.610379878,0.317674987,-2.370117409,2.467982481
0.382505417,-0.401204217,0.442475181,-2.600726332,2.66843148
0.392498417,-0.221158653,0.396430185,-2.299250325,2.343633951
0.402492417,-0.012308535,0.084400903,-2.067829224,2.06958757
0.412486417,0.066571281,-0.195002595,-1.468158082,1.4825471
0.422479417,0.162026638,0.009203042,-0.13298498,0.209814995
0.432473417,0.334815661,0.460329398,0.538674157,0.783692879
0.442466417,0.198500692,0.329568918,0.562526119,0.681508497
0.452460417,0.155721878,0.187675596,-0.179515952,0.302815802
0.462454417,-0.095091806,0.168809847,-1.696428704,1.707457046
0.472447417,-1.045557588,-0.440310468,-3.667860146,3.839304888
0.482441417,-1.169624979,-0.88081923,-2.839166431,3.194484486
0.492434417,-0.120284535,-0.358373508,1.195096035,1.253457009
0.502428417,0.069515793,-0.373923594,2.339846374,2.370555284
0.512422417,-1.153351008,-0.586483916,1.443649478,1.938635022
0.522415417,-1.787279817,0.047332041,1.193405605,2.149610756
0.532409417,-1.250715335,0.654854458,0.704799401,1.577930736
0.542402417,0.571412133,0.694704768,0.937034435,1.298907261
0.552396417,1.495186252,0.724804846,1.459368548,2.211488311
0.562390417,2.077263706,1.475034847,1.861693822,3.15541696
0.572383417,2.278381028,1.748410158,2.142579444,3.583099896
0.582377417,2.339607807,1.012099162,2.233659768,3.389298654
0.592370417,2.292302079,0.247798202,2.08127782,3.106085983
0.602364417,2.197960178,-0.318044385,1.350685181,2.599332921
0.612358417,1.869192291,-0.627811963,-0.062556437,1.972800292
0.622351417,1.763209754,-0.885427129,-1.589488977,2.53364659
0.632345417,2.014701422,-0.727684526,-2.4921067,3.286204862
0.642338417,1.752032801,-0.365644887,-2.017337347,2.696843542
0.652332417,0.621836182,-0.591526116,-1.25432833,1.519843065
0.662326417,-0.019484677,-1.017601977,0.004391844,1.017797978
0.672319417,-0.106728058,-1.176651432,1.013309609,1.556501151
0.682313417,-0.538661293,-1.163724115,1.663901228,2.100708714
0.692306417,-0.283898107,-0.913340201,-0.002578037,0.956449217
0.702300417,-0.058848132,-0.653830538,-1.643339786,1.76961101
0.712294417,-0.95881005,-0.526048118,-1.060256611,1.523216142
0.722287417,-1.46481406,-0.658327778,0.281466835,1.630429168
0.732281417,-1.555483909,-1.4038678,1.060350751,2.348343822
0.742274417,-1.345501624,-1.826172572,0.216192028,2.27860042
0.752268417,-1.512481731,-1.722560787,-0.823703116,2.435837326
0.762262417,-2.04026428,-1.155069797,-0.419699252,2.381808563
0.772255417,-1.883697479,-0.636524826,0.10206578,1.99095391
0.782249417,-1.497695292,-0.394180322,0.096425264,1.551698149
0.792242417,-1.313500398,-0.291549189,-0.063091018,1.346946436
0.802236417,-1.773072252,-0.749876464,-0.12020472,1.928872494
0.812230417,-1.998298228,-1.189874179,-0.263235655,2.340574584
0.822223417,-1.574033616,-1.209469076,-0.077839743,1.986568976
0.832217417,-1.138462243,-1.26055079,0.553680452,1.786518015
0.842210417,-0.327374495,-1.183869966,0.831252895,1.483139754
0.852204417,0.045695406,-1.124260087,0.847310738,1.408539776
0.862198417,0.06749558,-0.761522071,1.088019483,1.329758592
0.872191417,0.304375641,1.010995719,2.345436897,2.572125796
0.882185417,0.80780863,-0.321546502,3.037167186,3.159166259
0.892178417,1.020867135,-1.725620635,3.668508602,4.180656844
0.902172417,1.045282184,-1.573907024,1.443117381,2.377474698
0.912166417,1.191574257,-0.747941108,1.426690798,2.003674561
0.922159417,1.901792858,-0.144419064,0.657952679,2.017566521
0.932153417,2.478294407,2.060405307,-0.303062357,3.237137623
0.942146417,2.089397848,5.666953011,-2.414358612,6.504542052
0.952140417,2.4763046,4.893085713,-4.413148592,7.039194042
0.962134417,3.795465102,0.525765625,-3.947799103,5.501554562
0.972127417,4.911252428,-2.565384884,-1.923952636,5.865423578
0.982121417,5.562584304,-2.321112041,0.281651607,6.03400637
0.992114417,6.291405821,-0.354911153,2.478569226,6.771340676
1.002108417,6.914574584,-0.290620359,1.836519805,7.160209973
1.012102417,6.395268744,-1.591022701,0.24099884,6.594611132
1.022095417,5.263227913,-2.468058271,-0.002789117,5.813165013
1.032089417,4.405112763,-2.915610005,0.408038589,5.298329515
1.042082417,3.447619506,-3.087508497,0.403152655,4.645570044
1.052076417,2.698990545,-3.143848466,0.902746947,4.240670371
1.062070417,2.456077911,-2.894814382,0.569166802,3.838778434
1.072063417,2.325220149,-2.286427089,0.550205451,3.307132233
1.082057417,1.645697091,-1.878069096,0.844409276,2.635998761
1.092050417,0.794235488,-1.723448833,1.600377077,2.48239656
1.10204425,0.19467252,-1.629390376,1.454197855,2.192601603
1.11203825,-0.323940425,-1.511036299,1.181659133,1.945375646
1.12203125,-1.402786796,-1.630546809,0.723647901,2.26939639
1.13202525,-2.362327749,-1.626899901,0.072406067,2.869257451
1.14201825,-3.210015559,-1.61856718,-0.050088419,3.595339824
1.15201225,-3.698181467,-1.42415223,0.300690726,3.974313859
1.16200625,-3.72235678,-0.782284364,0.608101072,3.851972967
1.17199925,-3.82482748,-0.283299718,0.673502179,3.893991419
1.18199325,-3.888082659,0.002922658,0.613349533,3.936164752
1.19198625,-4.296463895,0.064191391,0.666856234,4.348381282
1.20198025,-4.608214629,0.213416062,0.529123315,4.643399613
1.21197425,-4.674236126,0.62990724,0.059808245,4.716867978
1.22196725,-4.596518444,0.687987341,-0.383900698,4.663548877
1.23196125,-4.447455375,0.749650761,-0.786066343,4.578180411
1.24195425,-4.33013801,0.74620412,-0.532983099,4.426170665
1.25194825,-4.121033392,0.59678978,-0.29252392,4.174283711
1.26194225,-4.319538762,0.635219435,-0.344703924,4.379582131
1.27193525,-4.302287137,0.755496954,-0.092783106,4.369102764
1.28192925,-4.214407579,1.252458244,0.576896163,4.43426342
1.29192225,-4.372493486,1.099895617,0.229349359,4.51453993
1.30191625,-4.043087668,0.494577088,-0.576073606,4.113760468
1.31191025,-3.198798845,-0.317859028,-0.552725674,3.26172563
1.32190325,-2.158348215,-0.921276188,0.009352621,2.346764646
1.33189725,-0.793714501,-1.986213788,0.402779603,2.176524599
1.34189025,-0.009145045,-2.195565743,0.011499719,2.195614904
1.35188425,0.728197619,-1.662621857,-0.043328453,1.815615754
1.36187825,1.51732381,-1.878151103,0.068822751,2.415462623
1.37187125,1.866124257,-2.258130073,1.66337834,3.36873844
1.38186525,2.587902219,0.151118073,2.765630093,3.790617941
1.39185825,2.802970996,2.737191575,1.79661402,4.310067988
1.40185225,1.625815973,3.989227211,0.936605249,4.408451056
1.41184625,1.547750382,4.120380843,-0.366611651,4.416726575
1.42183925,3.40141013,3.604774244,1.520504696,5.184199335
1.43183325,4.573373995,4.254487318,2.19498336,6.620752524
1.44182625,5.251549269,5.419284836,0.876502889,7.597083333
1.45182025,5.481704448,4.884813365,1.415299838,7.477536954
1.46181425,5.702304107,4.247073634,2.275835004,7.465475976
1.47180725,6.519211589,3.821392241,2.988003212,8.125965887
1.48180125,7.483390553,3.61253613,2.909670988,8.804415751
1.49179525,7.292823363,4.075905166,1.233316945,8.445078224
1.50178825,6.287198165,3.885802245,1.503196207,7.542408017
1.51178225,3.969488765,2.665368178,2.08855351,5.217574565
1.52177525,1.897271791,1.481435355,0.679657836,2.501244836
1.53176925,0.192861053,0.637788848,-0.376785367,0.765465357
1.54176325,-1.208622399,0.695592375,-0.094322605,1.397681512
1.55175625,-2.339152894,0.415440287,-0.062158972,2.376571192
1.56175025,-3.13750833,-0.14573191,-0.042561298,3.141179361
1.57174325,-3.991333963,-0.976649321,-0.108924857,4.11052981
1.58173725,-4.261014565,-1.303468622,-0.380453326,4.472138225
1.59173125,-4.613454319,-1.184938252,-0.168225564,4.766166096
1.60172425,-5.124381099,-1.259209293,0.403432152,5.292225165
1.61171825,-5.53902061,-1.571001543,0.070152993,5.757926415
1.62171125,-5.560590404,-1.568484024,-0.105362879,5.778530013
1.63170525,-5.997069849,-1.478757038,0.444869031,6.192695504
1.64169925,-6.497090403,-1.884942936,0.43615551,6.779043089
1.65169225,-6.692426582,-2.300334691,0.84810077,7.127368951
1.66168625,-6.959447871,-2.711626378,0.490510496,7.485147482
1.67168025,-6.861281891,-2.711277592,-0.088472612,7.378078528
1.68167325,-6.714724939,-2.706107191,-0.531783433,7.259017892
1.69166725,-6.468168905,-2.860487426,-0.354453023,7.081329977
1.70166025,-6.696334861,-2.666841677,-0.210572123,7.210914347
1.71165425,-6.998797293,-2.219823502,-0.502437062,7.359566763
1.72164825,-6.840340673,-2.317123217,-0.8502179,7.272014233
1.73164125,-6.300895268,-2.103722357,-1.313234934,6.77137467
1.74163525,-5.400185491,-1.201519786,-1.292627592,5.681244514
1.75162825,-4.867142787,-0.548882519,-1.749476983,5.201059569
1.76162225,-4.891316346,-0.873688624,-1.496502022,5.189202801
1.77161625,-5.105550141,-1.640714679,-1.752961923,5.641937824
1.78160925,-4.941781325,-1.08490204,-2.167833568,5.504336244
1.79160325,-4.214592351,-0.116681773,-1.807760859,4.587417862
1.80159625,-2.515453463,0.546877216,-2.022568266,3.273738414
1.81159025,-0.38554552,1.260016501,-1.913415953,2.323240741
1.82158425,2.229127007,1.819900848,-2.22811193,3.639440765
1.83157725,4.652562252,1.416343273,-1.677185517,5.144445065
1.84157125,6.594016188,1.661857918,-1.182335656,6.902227093
1.85156425,8.099905769,2.33841059,-0.797234525,8.468306822
1.86155825,9.433932232,2.4839741,-1.30516987,9.842391634
1.87155225,10.6414764,2.349655517,-0.996680127,10.94327521
1.88154525,11.74341694,2.454078748,-0.231839177,11.9993372
1.89153925,12.26391503,3.333295622,-0.077136487,12.70906848
1.90153325,11.63167665,4.816439241,-0.011078117,12.58944444
1.91152625,10.41517162,5.687018316,-0.415837605,11.87395882
1.92152025,9.03591811,5.471345521,-0.842072729,10.59681671
1.93151325,7.602645686,4.265662225,-0.979751196,8.772457355
1.94150725,5.780164461,2.320000047,-1.211728952,6.345154724
1.95150125,3.758388492,0.601156919,-1.650642081,4.148673641
1.96149425,1.412231219,-0.250296206,-1.735214893,2.251225429
1.97148825,-0.401706054,-0.459794926,-1.361929961,1.492525493
1.98148125,-0.940668479,-0.440143603,-0.557715469,1.178825739
1.99147525,-1.774104286,-0.938868122,0.002182473,2.007218008
2.00146925,-2.864082001,-1.895321159,-0.114748099,3.436331639
2.01146225,-3.486341522,-2.563035472,-0.421869593,4.347608767
2.02145625,-4.307702243,-2.967084798,-0.20344232,5.234623157
2.03144925,-4.726378672,-3.242624603,0.274158254,5.738330107
2.04144325,-4.592113736,-3.46497755,0.185721602,5.755698959
2.05143725,-4.373874598,-3.693690221,0.088485622,5.725552912
2.06143025,-3.895477048,-3.756995101,0.239933478,5.417316835
2.07142425,-3.865245774,-4.637682842,0.520113341,6.059599403
2.08141825,-4.126610466,-6.128002456,1.561654476,7.551164993
2.09141125,-3.222456679,-7.505391287,2.362994331,8.50287408
2.10140525,-2.282841284,-8.60543206,2.642292142,9.286901153
2.111398042,-2.20339341,-9.433530529,2.954139647,10.12785179
2.121392042,-2.1443301,-9.431192227,2.939428053,10.10869802
2.131386042,-1.758057772,-8.072469463,3.286451239,8.891360532
2.141379042,-1.01021994,-4.872381892,2.59817987,5.613482722
2.151373042,0.006437784,2.299197115,2.570787711,3.448956114
2.161366042,-1.36569206,3.97987956,4.591579885,6.227934004
2.171360042,-1.804687563,-0.004933881,2.98130932,3.484985911
2.181354042,-0.908335716,-2.691217842,1.826624269,3.37702287
2.191347042,-0.649435624,-3.449840863,3.494536979,4.953277431
2.201341042,-0.506020966,-3.181821162,3.495301795,4.753648889
2.211335042,0.258620594,-2.016216144,1.65939551,2.624043751
2.221328042,1.14838146,-0.272513579,0.536632894,1.296540971
2.231322042,1.908222456,1.169468858,0.07857503,2.239451805
2.241315042,3.10577783,2.783534852,-0.052879879,4.170937362
2.251309042,3.850842327,3.176819454,0.203204777,4.996244655
2.261303042,3.367119718,1.590820388,-0.557210416,3.765459886
2.271296042,2.912651898,-0.313803107,-1.579219512,3.328054648
2.281290042,3.152523395,-0.453946541,-2.159331132,3.848010156
2.291283042,3.39553017,0.97948142,-2.410292459,4.27767679
2.301277042,4.196932005,2.939447933,-1.61836779,5.373425975
2.311271042,5.154959698,4.489868154,-0.573746341,6.860153817
2.321264042,5.827502934,4.443349168,-0.402510631,7.339288595
2.331258042,6.290280232,3.245462257,-0.55101763,7.099596544
2.341252042,6.94770023,1.904759443,-0.870330568,7.256453839
2.351245042,7.904574852,1.109776095,-0.497448363,7.997584726
2.361239042,7.74308762,3.38069286,-0.022290171,8.448963661
2.371232042,6.681065442,5.853409608,0.954852655,8.9336881
2.381226042,5.77963178,5.813149774,1.817161428,8.396364062
2.391220042,4.807317585,4.50691191,1.195908213,6.697219855
2.401213042,3.413233784,3.139715947,0.455419783,4.659977282
2.411207042,1.624384575,1.991513119,0.080226101,2.571222662
2.421200042,-0.073082594,1.218004256,-0.605582786,1.362206279
2.431194042,-1.485068815,0.905081155,-1.93001269,2.597989658
2.441188042,-2.452005326,0.763784651,-2.661055564,3.698231175
2.451181042,-2.682685,1.045928886,-2.622368631,3.894558162
2.461175042,-2.846757286,1.758720554,-2.137756076,3.970784063
2.471169042,-3.975358785,1.295222879,-2.226469447,4.736902572
2.481162042,-5.305011531,-0.243179267,-3.310078375,6.257707436
2.491156042,-6.548625423,-1.822071919,-4.425126613,8.110868421
2.501149042,-7.187276443,-2.697162413,-3.859124908,8.592116899
2.511143042,-6.668498021,-2.481263623,-2.237628858,7.458720932
2.521137042,-5.272331443,-1.885552216,-0.778357959,5.653196186
2.531130042,-3.19374802,-1.784026426,-0.11639219,3.660098885
2.541124042,-1.208193798,-1.925081733,0.890064336,2.440878214
2.551118042,-0.462482014,-2.248830077,1.634969643,2.81855496
2.561111042,-0.795406685,-2.717612758,1.518714717,3.21318927
2.571105042,-1.439601451,-2.637642728,-0.013396702,3.00496106
2.581098042,-1.900202415,-2.088490945,0.27626676,2.837056039
2.591092042,-2.209192094,-1.715418852,0.714252449,2.886753905
2.601086042,-2.226169485,-1.604656654,1.096891902,2.955321539
2.611079042,-2.656584198,-1.5001099,0.296237487,3.065212222
2.621073042,-3.048672168,-1.914438631,-0.90831145,3.712749244
2.631066042,-3.039050574,-3.135645992,-1.964593123,4.78829096
2.641060042,-3.771883866,-3.894395606,-2.443096069,5.946607725
2.651054042,-4.793500614,-5.053774216,-2.265899853,7.324792428
2.661047042,-5.844989033,-3.907641011,-2.422371637,7.436493758
2.671041042,-4.148822869,0.009080434,-4.528825813,6.141911502
2.681035042,-2.780019506,1.633688664,-2.104087808,3.850276952
2.691028042,-5.597358865,0.045402752,6.012103626,8.214491931
2.701022042,-7.85566874,-0.613317958,4.343178762,8.997271366
2.711015042,-4.78251662,1.142440689,2.468676614,5.501999652
2.721009042,-1.176911194,1.921000376,3.612196407,4.257149902
2.731003042,0.988279433,1.835256221,3.814167714,4.346577617
2.740996042,2.676523789,2.107805468,4.464497378,5.615902449
2.750990042,4.322753561,2.599048766,5.009654635,7.109000802
2.760984042,5.446117124,3.401068652,3.679746658,7.400540195
2.770977042,6.297269994,4.184268106,2.562203414,7.983019184
2.780971042,6.964560091,4.795852072,2.559002648,8.834805539
2.790964042,7.392364608,4.048841621,2.610321905,8.823488733
2.800958042,8.147988592,3.652756203,2.316082997,9.224781105
2.810952042,9.155165641,4.323288874,2.436100022,10.41357133
2.820945042,9.556240781,4.840908085,2.961076492,11.11413977
2.830939042,10.00331363,4.904245709,3.960481714,11.82384561
2.840933042,10.0121055,4.307849301,4.458275063,11.77607909
2.850926042,9.400069837,2.6716323,4.128105599,10.60849603
2.860920042,7.880723475,0.974079762,3.176569777,8.552498431
2.870913042,4.844073182,2.546963523,1.625853395,5.709244035
2.880907042,2.232305553,3.140285758,1.611449364,4.176284446
2.890901042,-0.355053459,1.458016087,0.409046649,1.555375527
2.900894042,-2.038289675,0.992792898,-1.119000078,2.52832429
2.910888042,-2.921370097,0.18801605,-2.195026337,3.658947102
2.920881042,-3.667060246,-0.672849045,-2.517514314,4.498659246
2.930875042,-3.879006026,-1.063605896,-2.232593236,4.600262798
2.940869042,-3.99883711,-1.614829347,-2.20705903,4.844531104
2.950862042,-4.690933435,-2.373369631,-2.436153524,5.794185351
2.960856042,-5.234193563,-2.989819065,-2.283497634,6.445941494
2.970850042,-5.158264545,-3.669860478,-2.494888805,6.804413214
2.980843042,-5.750142517,-4.225513195,-1.678008513,7.330403352
2.990837042,-6.785561618,-4.160816093,-1.378942435,8.078225007
3.000830042,-7.010263683,-3.647210703,-1.618235789,8.066264928
3.010824042,-6.249809314,-3.23632569,-1.710663604,7.242947632
3.020818042,-5.54231727,-3.122759898,-1.201929091,6.47406701
3.030811042,-5.291475812,-3.367816706,-1.308061903,6.407256166
3.040805042,-4.673194152,-3.3879054,-3.046455196,6.526678776
3.050799042,-3.582378531,-2.933748652,-7.807418101,9.077229451
3.060792042,-3.726597181,-2.645434143,-2.74368023,5.330443655
3.070786042,-3.760174817,-1.536808487,-0.954173208,4.172665993
3.080780042,-2.886002628,-0.789644839,4.591848565,5.480659028
3.090773042,-2.7748225,-1.18962538,5.593568115,6.356323836
3.100767042,-2.222823708,-1.445722316,2.566524798,3.690272049
3.11075975,-2.219705973,-0.775379387,2.485106413,3.421119946
3.12075375,-1.546516619,-0.959836237,0.968213397,2.061658662
3.13074775,-1.132197536,-1.970020509,-1.506214101,2.726083818
3.14074075,-0.568416604,-2.270536403,-2.399128224,3.351753157
3.15073475,-0.318774995,-1.803208217,-3.664745334,4.096771379
3.16072875,-0.195410439,-0.606220608,-3.404737195,3.463801962
3.17072175,0.69547777,0.702514894,-2.752790776,2.924905736
3.18071575,1.563323271,0.788503463,-1.372291228,2.224612455
3.19070875,2.662501581,0.54339286,-0.405328331,2.747450004
3.20070275,3.608290467,0.626028051,-0.575231461,3.707096228
3.21069675,5.2785751,1.462604982,-0.807306939,5.536633716
3.22068975,6.334814966,2.540080765,-0.97462443,6.894329824
3.23068375,7.010906877,3.117425483,-0.436174806,7.685141856
3.24067775,7.463360916,3.228538368,0.366107584,8.139978558
3.25067075,7.181290648,3.247917795,0.515427309,7.89845369
3.26066475,8.170122058,4.679717306,0.338885872,9.421544042
3.27065775,8.735522668,5.962719212,0.230486753,10.57905954
3.28065175,7.907842861,5.921561245,0.917022339,9.921683137
3.29064575,6.351440354,5.366787364,2.535421704,8.693190692
3.30063875,5.038045206,4.688364753,1.874869353,7.132867491
3.31063275,3.762534168,3.665598443,0.492734338,5.275989238
3.32062675,2.021419873,2.625077646,-1.296671526,3.557882516
3.33061975,0.90665698,1.52030589,-2.201255668,2.824691735
3.34061375,-0.094119122,0.211205522,-1.142894433,1.166050542
3.35060675,-1.12698182,-0.879879656,-0.395258914,1.483410206
3.36060075,-1.848239964,-1.78557243,-1.087273378,2.790416325
3.37059475,-2.341426291,-2.74035141,-1.516260202,3.910351382
3.38058775,-2.978406762,-3.312624838,-2.118839749,4.932937465
3.39058175,-3.596116564,-4.016714972,-1.564592117,5.613733339
3.40057575,-3.560194194,-4.310199589,-0.404369534,5.60502613
3.41056875,-3.554972631,-4.026030756,-0.738509769,5.421452825
3.42056275,-3.385261289,-3.687845344,-0.795795525,5.068874411
3.43055575,-3.483007439,-3.300004792,-0.54317359,4.828706866
3.44054975,-4.004847463,-4.457165262,0.513771999,6.01407408
3.45054375,-4.226189134,-4.732704774,1.091233113,6.43816424
3.46053675,-4.331904454,-4.66753814,1.037461533,6.451948149
3.47053075,-4.579216533,-4.493444896,-0.507619595,6.435677799
3.48052475,-4.765866088,-4.512617916,-0.980329558,6.63613186
3.49051775,-5.141481866,-5.276629731,1.371984833,7.493997564
3.50051175,-6.054995876,-6.497639456,1.900679986,9.0826691
3.51050575,-5.696491975,-5.445051177,-1.402406727,8.004083193
3.52049875,-4.717751105,-4.570100139,-1.530992846,6.744399889
3.53049275,-4.881079041,-5.673289053,-0.347573628,7.492125781
3.54048575,-4.542645707,-5.235436682,-0.818924187,6.979689398
3.55047975,-3.603475285,-3.782736298,-1.122527411,5.343612619
3.56047375,-2.317776643,-2.829824919,-0.546482017,3.698464578
3.57046675,-0.657405379,-1.457099828,-0.135997538,1.604312025
3.58046075,1.42447178,0.842192597,0.764409937,1.822835915
3.59045475,3.725718929,3.500303503,2.080194185,5.519086337
3.60044775,6.500304033,6.538948281,2.20632842,9.480489557
3.61044175,9.0114633,8.854594783,2.360269529,12.85228353
3.62043475,10.0315662,10.57652553,2.412195727,14.77544927
3.63042875,9.025024747,10.78665458,1.549600295,14.1493551
3.64042275,8.547620054,9.848772887,-0.05975869,13.04084764
3.65041575,8.734884152,9.065556477,-1.158557369,12.64218219
3.66040975,8.750876872,8.922873305,-0.535459943,12.50928581
3.67040375,6.156872499,8.560388035,0.169552736,10.54590301
3.68039675,5.48881934,8.667535338,0.078607628,10.25960456
3.69039075,7.421482573,8.617706535,0.238839902,11.37542588
3.70038375,6.498758613,6.41475342,2.536772411,9.477243229
3.71037775,3.841703129,4.248863466,4.596020261,7.344040164
3.72037175,3.300245113,3.026726983,4.896037973,6.635049499
3.73036475,-0.181332098,0.872981111,2.949668866,3.081480776
3.74035875,-1.714145182,1.71047547,1.713651531,2.966584165
3.75035275,-1.603150996,1.949347093,1.447032092,2.909286696
3.76034575,-1.771668336,0.712051118,0.693137568,2.031321042
3.77033975,-1.928549716,-0.639558508,1.081005748,2.301502231
3.78033375,-2.184481761,-1.890425286,1.122027036,3.099131006
3.79032675,-1.97443925,-3.042529083,0.704750431,3.694870328
3.80032075,-1.997237543,-4.46383518,-0.362153002,4.903665682
3.81031375,-2.153165243,-5.927904305,-0.146443589,6.30853515
3.82030775,-1.520485692,-6.552133167,0.876083205,6.783055916
3.83030175,-2.16750437,-7.429088631,-0.117962898,7.739725339
3.84029475,-2.325860711,-7.584563756,-1.003748826,7.996420895
3.85028875,-1.924034789,-7.343343306,-1.173205887,7.681341864
3.86028275,-2.377793342,-7.275696284,-0.963529338,7.714793994
3.87027575,-3.099212869,-7.436511671,-0.890261387,8.10551612
3.88026975,-3.430296252,-7.854761252,-0.776122568,8.606193871
3.89026375,-3.171203788,-7.931424097,-0.909615671,8.590193382
3.90025675,-2.947464466,-7.610393831,-0.838771464,8.204217124
3.91025075,-2.792298658,-6.97986284,-0.833487262,7.563737044
3.92024375,-2.661288283,-6.484193199,-1.087052938,7.092876769
3.93023775,-2.423686383,-6.250654237,-1.454948053,6.860160924
3.94023175,-2.320271942,-6.057167532,-1.678084234,6.699918439
3.95022475,-2.394224018,-5.785480165,-1.526977564,6.444823494
3.96021875,-2.710380337,-6.314033377,-0.679872136,6.904737879
3.97021275,-0.280388609,-7.591700867,0.670903677,7.626444229
3.98020575,-1.092937576,-7.259973121,0.479974544,7.357451857
3.99019975,-3.321256498,-5.845067385,1.382224478,6.863388519
4.00019375,-2.844663691,-4.33719326,2.974939363,5.979433176
4.01018675,-2.170061942,-1.935956969,2.855417597,4.075599082
4.02018075,-0.383294049,0.780471143,0.784309255,1.170978454
4.03017375,1.587903796,3.731588364,-1.908296131,4.481939793
4.04016775,2.836451569,7.024808047,-2.644606762,8.024171641
4.05016175,3.855987877,11.3342206,-0.781011498,11.99763219
4.06015475,4.405844834,14.00034395,-1.309618285,14.73554205
4.07014875,2.857041954,12.63945479,-5.270815845,13.98928182
4.08014275,1.786557101,9.789145905,-4.508610234,10.9245929
4.09013575,2.977515939,11.0520445,0.435838737,11.45439846
4.10012975,3.893282296,12.99096718,1.134834338,13.60921468
4.110123875,4.441836493,14.44751561,-1.213809464,15.1635732
4.120116875,3.48957854,13.95418603,-1.313928999,14.44378328
4.130110875,1.955995962,11.41950458,-0.499369758,11.59656739
4.140103875,0.825243858,8.883259588,0.199842628,8.923747274
4.150097875,0.14675488,7.08013791,0.105186732,7.082439839
4.160091875,-0.601837243,5.140299559,0.02459105,5.175470254
4.170084875,-1.210696114,3.386545338,-0.228584178,3.603709913
4.180078875,-1.19998957,2.066359819,-0.620622446,2.468803372
4.190072875,-1.391193522,0.516725464,-0.738122245,1.65748275
4.200065875,-1.234108658,-0.904972397,-0.238602651,1.548848102
4.210059875,-0.619839942,-2.047115462,-0.267912405,2.155611358
4.220053875,-0.648985974,-3.606417603,0.129098409,3.666619304
4.230046875,-0.991706778,-5.060175748,0.962884244,5.245570226
4.240040875,-0.932563654,-6.346287203,1.245470967,6.534235545
4.250034875,-0.908492129,-7.527258119,1.147148794,7.668175995
4.260027875,-0.855826842,-8.44796245,1.251728657,8.582967655
4.270021875,-1.461283219,-9.383128114,1.112774328,9.56120853
4.280014875,-2.061382961,-9.841378498,1.556404846,10.1746954
4.290008875,-1.704311627,-9.370823234,1.471178315,9.637498215
4.300002875,-1.312670386,-9.016873144,0.72187159,9.140470635
4.309995875,-1.170859618,-9.362023174,0.906436686,9.478397419
4.319989875,-1.321418697,-9.524683358,1.389399011,9.715769144
4.329983875,-1.501375822,-9.536566654,1.691100136,9.801023038
4.339976875,-1.74539241,-9.62845214,1.483497083,9.897183886
4.349970875,-1.694828028,-9.476816297,0.848004071,9.664450324
4.359964875,-1.357105716,-8.793020094,-0.030324903,8.897182582
4.369957875,-0.854029993,-7.67052075,-0.69877158,7.749486275
4.379951875,-0.991194562,-6.863031963,-0.860196685,6.987389549
4.389944875,-1.022934126,-5.873355045,-1.049808952,6.053494243
4.399938875,-0.094501238,-3.966533582,-0.644633233,4.019685454
4.409932875,1.019047774,-1.463518901,-0.112095656,1.786871953
4.419925875,1.842982147,1.198333054,0.263527066,2.214053255
4.429919875,2.386249877,4.126651981,0.996199486,4.869893065
4.439913875,2.37575354,6.72383607,1.666737127,7.323400101
4.449906875,2.645669786,10.22119725,1.65358557,10.68675756
4.459900875,3.010206259,13.93518492,1.096842932,14.29873368
4.469894875,1.879303004,15.02435747,-0.173006211,15.14242478
4.479887875,-0.354793843,13.47933131,-0.954431582,13.51773615
4.489881875,-2.561136589,11.18676201,-1.705783664,11.60227403
4.499875875,-3.16472975,10.45874156,-1.406143098,11.01716968
4.509868875,-2.746191609,11.10382042,-0.913159668,11.4747661
4.519862875,-1.590452013,11.11606332,-1.311258575,11.30556502
4.529855875,-0.286187292,10.74521887,-0.631664767,10.76757318
4.539849875,1.754315554,10.99263562,0.378113708,11.13816102
4.549843875,4.667923764,10.30454697,1.090992792,11.3650106
4.559836875,8.193602722,7.97572845,2.007305279,11.60933436
4.569830875,5.169474242,5.662392182,2.476544335,8.057258902
4.579824875,1.526961191,5.52247299,1.867236398,6.026266686
4.589817875,0.088637357,3.97251236,1.512080612,4.251481955
4.599811875,-0.944980508,1.816010111,0.058695502,2.048005382
4.609805875,-1.548858137,-0.297975279,-0.530809067,1.664184203
4.619798875,-1.744156601,-1.614491671,-1.226282744,2.674403667
4.629792875,-1.642215074,-2.526116445,-1.218213002,3.249950394
4.639786875,-1.617482814,-3.609938797,-0.92315256,4.062033902
4.649779875,-1.069387915,-3.993500941,-1.210649629,4.307819959
4.659773875,-0.68667274,-4.207549379,-1.048009325,4.390138355
4.669766875,-0.605265173,-4.787992537,-0.625298903,4.866437833
4.679760875,-0.991610299,-6.372371632,0.110717038,6.450013137
4.689754875,-1.320626107,-6.306923162,-0.762871023,6.48870598
4.699747875,-1.287685525,-5.924338673,-1.438096962,6.230894446
4.709741875,-1.997174101,-6.114233433,-0.825140362,6.484860174
4.719735875,-2.34230542,-6.077214126,-0.123486105,6.514151904
4.729728875,-2.447633362,-5.879242607,0.27491503,6.374322002
4.739722875,-2.760884492,-5.488835127,0.097514015,6.144859902
4.749716875,-3.043704958,-6.10024397,0.420829958,6.830389024
4.759709875,-3.648551762,-6.539697894,1.068552933,7.564481732
4.769703875,-3.703411217,-5.327321582,0.693013169,6.525019321
4.779697875,-3.694927199,-5.716029276,0.306741388,6.813190734
4.789690875,-3.188353086,-6.582879581,0.006493881,7.314365397
4.799684875,-2.5875891,-7.127900307,-0.151834631,7.584565504
4.809677875,-2.405198657,-7.855657046,-0.018536861,8.215635813
4.819671875,-1.715938816,-8.24610604,0.73475878,8.454737211
4.829665875,-0.806679533,-8.471216242,0.779009339,8.545120949
4.839658875,-0.103292819,-8.11311229,0.053979156,8.113949358
4.849652875,0.515028602,-5.869563126,-1.048749583,5.984722336
4.859646875,1.473576697,-1.528507195,-1.417124169,2.55264636
4.869639875,3.811246153,5.665581838,-0.304344066,6.834986475
4.879633875,6.504322239,12.74998939,-1.349696417,14.37672138
4.889627875,7.554331312,10.55128427,-1.696570791,13.08724088
4.899620875,2.653231697,1.651489928,-1.450538667,3.44544915
4.909614875,-2.491833635,-3.49955506,-2.601803974,5.022499816
4.919608875,-1.69521833,-0.983592305,-2.737923646,3.367112249
4.929601875,0.223577354,4.825052775,-0.674788494,4.877136519
4.939595875,2.469017799,9.934940965,-0.303962755,10.24165486
4.949589875,5.492099043,14.10753043,-0.523588853,15.14792764
4.959582875,5.997001437,15.10042273,0.671853191,16.26155526
4.969576875,4.282394032,13.74374357,1.283231117,14.45254538
4.979570875,2.958062837,10.55239524,-0.107052067,10.95968254
4.989563875,2.092753858,7.100336532,-0.832541914,7.448994806
4.999557875,2.113091643,5.547256413,-1.20659992,6.057482429
5.009550875,2.372915594,4.451660108,-0.613682824,5.081792277
5.019544875,2.762500078,3.631375859,0.326897983,4.57440265
5.029538875,2.554603203,2.738077428,0.699539831,3.809517226
5.039531875,2.329543872,1.800543641,1.028960266,3.118892638
5.049525875,2.340650951,0.914623811,1.233375417,2.799356803
5.059519875,2.165400834,-0.296484239,1.516232135,2.660042023
5.069512875,1.641739988,-1.190694836,1.120936968,2.317231984
5.079506875,1.203639109,-1.992920544,0.674338331,2.423883575
5.089500875,0.856677319,-2.885275819,0.692927799,3.088504738
5.099493875,0.525602414,-3.715739486,0.589328002,3.798721538
5.109487792,-0.003718829,-4.451474167,0.135984017,4.453552261
5.119481792,-0.497914971,-5.138633103,-0.18565319,5.166036836
5.129474792,-0.955340605,-5.777624431,-0.083171974,5.856666058
5.139468792,-1.323516093,-6.269443679,0.201997894,6.410805101
5.149461792,-1.663004265,-6.552646553,0.359776255,6.769948226
5.159455792,-1.942823062,-6.438762673,0.646951727,6.756535558
5.169449792,-2.090027009,-6.326550511,0.873851177,6.719901052
5.179442792,-2.252342499,-6.423475712,0.563803699,6.830224123
5.189436792,-2.271019383,-6.621903899,0.074493491,7.000906339
5.199430792,-2.271557912,-6.808581521,-0.29584565,7.183612066
5.209423792,-2.172183312,-6.985589603,-0.580102777,7.338484971
5.219417792,-2.134990343,-7.091606054,-0.887775151,7.459035119
5.229411792,-2.225774213,-7.124541666,-1.039793403,7.536201637
5.239404792,-2.426477259,-7.230079815,-0.662210037,7.65508773
5.249398792,-2.518249601,-7.156894895,-0.257180425,7.591367951
5.259392792,-2.323810677,-6.409949348,0.310599564,6.825248625
5.269385792,-1.859128649,-4.855731946,1.621576011,5.44646682
5.279379792,-1.372476877,-2.945748893,2.457585323,4.074414675
5.289373792,-0.79909394,-1.24520258,2.139405283,2.601179647
5.299366792,0.132830321,0.391797363,1.157371261,1.229087997
5.309360792,1.819074929,3.065885786,0.570780926,3.610329641
5.319354792,3.801333953,6.444450259,0.313624767,7.488620664
5.329347792,5.007403457,8.897483525,-0.696445777,10.23349106
5.339341792,4.654893244,10.21380404,-2.380405731,11.47415162
5.349334792,1.957083544,9.660917636,-1.793933071,10.01906689
5.359328792,-0.759677859,7.843480219,-0.629975798,7.905324908
5.369322792,-1.134026838,6.498967944,0.310626607,6.604475005
5.379315792,-0.561871524,5.981645479,0.248273361,6.013104183
5.389309792,0.893002854,5.632662014,0.664745682,5.741621921
5.399303792,2.28206682,5.631826447,1.603600647,6.284650598
5.409296792,3.127542336,5.920084823,2.894784561,7.29442959
5.419290792,3.287898717,6.211581972,4.094492003,8.133811735
5.429284792,3.313936368,6.205267564,5.20862252,8.75312906
5.439277792,3.381849147,5.796929013,4.862542782,8.287678321
5.449271792,3.459854512,4.869843031,3.592623145,6.97086117
5.459265792,2.981030992,3.419127193,2.413877094,5.138460778
5.469258792,2.139351781,2.106187543,1.575249545,3.390319032
5.479252792,1.288844151,0.928222681,0.813004173,1.784290441
5.489246792,0.520189939,0.044102039,0.070964587,0.526857225
5.499239792,-0.248583556,-0.749622987,-0.52085316,0.946053075
5.509233792,-0.569088157,-1.366722924,-1.0760381,1.830205145
5.519227792,-0.828546073,-1.804470631,-1.455978478,2.462209614
5.529220792,-1.046367427,-2.32009331,-1.50107089,2.954814982
5.539214792,-1.329098138,-2.77814138,-1.51531076,3.432307983
5.549208792,-1.656389894,-3.056624381,-1.524668352,3.796207801
5.559201792,-2.056586198,-3.5390454,-1.443907925,4.340421549
5.569195792,-2.399449089,-4.460552554,-1.443016809,5.266515217
5.579189792,-2.403377249,-5.283463372,-1.507028033,5.99686092
5.589182792,-2.275747442,-5.963346618,-2.020950196,6.695130245
5.599176792,-2.277126215,-6.393004702,-2.653673455,7.286823431
5.609169792,-2.403811405,-6.365518695,-2.76475418,7.344521986
5.619163792,-2.537323803,-5.970876077,-2.506501375,6.954992621
5.629157792,-2.574256279,-5.479953207,-1.96820144,6.366356843
5.639150792,-2.768444358,-4.622326884,-1.411211464,5.569713438
5.649144792,-3.163585158,-3.721566237,-0.125146714,4.886101514
5.659138792,-3.365312344,-3.568130035,1.601072896,5.15948772
5.669131792,-3.139044979,-3.929466328,1.736944646,5.320835057
5.679125792,-2.812273917,-3.633048162,0.852197183,4.672704096
5.689119792,-3.082425805,-3.850703748,0.114106659,4.933790483
5.699112792,-3.738673143,-4.055881961,-0.800831147,5.573973975
5.709106792,-4.03337252,-3.253302496,-0.498587986,5.20582952
5.719100792,-3.899437075,-2.052934611,-0.913851979,4.500586124
5.729093792,-3.142193412,0.652680829,-2.719976202,4.206856575
5.739087792,-1.895197491,4.313853514,-4.876653868,6.781066186
5.749081792,-0.081999598,5.706674316,-3.567775694,6.730667061
5.759074792,1.604040065,4.863719242,-0.402887192,5.137219821
5.769068792,1.669555778,2.475111183,1.09084018,3.178604121
5.779062792,1.422725217,1.915779982,1.820120119,3.001199299
5.789055792,2.741861453,2.984324729,2.605890008,4.818159509
5.799049792,3.418479029,4.13406742,0.862237437,5.433227927
5.809043792,4.335348464,5.41112797,0.5263301,6.953601627
5.819036792,4.593306568,6.573078479,1.673242739,8.191676701
5.829030792,4.443018508,6.546871258,1.946549785,8.148066813
5.839024792,4.514547789,6.181371748,0.466276857,7.668631725
5.849017792,4.313445086,5.807318931,-0.323120609,7.2412132
5.859011792,3.532158842,4.546505454,0.033386468,5.757427601
5.869004792,3.557010093,3.499190193,-0.23978843,4.995413026
5.878998792,3.910261148,2.998774368,-0.694839839,4.97650403
5.888992792,3.783960705,2.693249164,-0.320709217,4.655620698
5.898985792,3.478181148,2.682299668,0.436153208,4.413921751
5.908979792,2.876503826,2.580403165,0.765420336,3.939368356
5.918973792,2.020579044,2.289138735,0.572422532,3.10653559
5.928966792,1.065259196,1.736414888,0.199966589,2.046924633
5.938960792,0.230329426,0.908749114,0.162799275,0.951514687
5.948954792,-0.325579692,0.092478393,0.403717533,0.526822774
5.958947792,-0.715515009,-0.637451171,0.436380043,1.052964038
5.968941792,-0.919805029,-1.304548895,0.457522405,1.660486634
5.978935792,-1.13113539,-2.044633904,0.476239452,2.384701048
5.988928792,-1.277905765,-2.806059496,0.477904557,3.120161182
5.998922792,-1.350405099,-3.561255464,0.572410837,3.85146577
6.008916792,-1.377573017,-4.10424779,0.597748029,4.370338665
6.018909792,-1.353809348,-4.476568662,0.610263373,4.716448677
6.028903792,-1.18921052,-4.73949573,0.607295326,4.924007418
6.038897792,-1.048001724,-5.05417475,0.702899641,5.209324133
6.048890792,-0.924645354,-5.40144732,0.759805986,5.532441352
6.058884792,-0.79703572,-5.791494611,0.668174196,5.884142463
6.068878792,-0.578147541,-6.14706321,0.492989313,6.193842035
6.078871792,-0.359432439,-6.471504741,0.141606699,6.483025355
6.088865792,-0.399999837,-6.873910123,-0.399246679,6.897103606
6.098859792,-0.665345898,-7.176280754,-0.793729119,7.250634216
6.108853292,-0.870457745,-7.281048825,-0.953975573,7.394689856
6.118847292,-0.951532606,-6.989911864,-1.067919095,7.134755312
6.128841292,-0.847139341,-6.001633601,-0.950802873,6.135248736
6.138834292,-0.704064991,-4.562143832,-0.606839207,4.655869165
6.148828292,-0.392742565,-2.876177552,-0.448432324,2.93730073
6.158822292,0.055222859,-0.992202914,-0.541502455,1.131698324
6.168815292,0.53652589,1.077305045,-0.978793568,1.551284319
6.178809292,0.792474892,2.866071224,-1.974166185,3.569273433
6.188803292,0.52148919,4.135081328,-2.441699023,4.830397777
6.198796292,-0.140433748,5.094983053,-1.663881347,5.361629891
6.208790292,-0.825787356,5.563723342,-1.024933873,5.717292334
6.218784292,-1.046972322,6.039344049,-1.370300835,6.280728617
6.228777292,-0.480103183,6.362215018,-1.742438689,6.613952796
6.238771292,0.461895246,6.149882737,-1.057794056,6.257262434
6.248764292,1.119845586,6.052567527,-0.559625243,6.180680239
6.258758292,1.967209167,6.092108154,-0.537910949,6.424409845
6.268752292,2.886883804,6.242963394,-0.640947222,6.90793047
6.278745292,3.423696792,6.234557437,-0.604328376,7.138390501
6.288739292,3.725119882,5.812848058,-0.912662655,6.964098922
6.298733292,3.710085813,5.221822609,-1.226226465,6.52194752
6.308726292,3.476470837,4.771989293,-1.110645796,6.007600634
6.318720292,3.286230799,4.592122507,-0.763870824,5.698280497
6.328714292,3.068626083,4.603003006,-0.53652304,5.558053588
6.338707292,2.73941644,4.457228411,-0.25322069,5.23788204
6.348701292,2.274828844,4.081800914,0.141492094,4.675036362
6.358695292,1.599674534,3.567872173,0.423178273,3.93290609
6.368688292,0.9097332,2.750633739,0.754120154,2.993709683
6.378682292,0.466147926,1.641883537,1.189936452,2.080630721
6.388676292,0.124005118,0.560144548,1.378864667,1.493454705
6.398669292,-0.238711702,-0.490097244,1.438046676,1.537906638
6.408663292,-0.512656094,-1.494734847,1.471965204,2.159567109
6.418657292,-0.674911358,-2.300622082,1.542632314,2.850979088
6.428650292,-0.805924365,-3.102994555,1.377587636,3.489389199
6.438644292,-0.953389097,-3.914375834,1.207102708,4.20575628
6.448638292,-1.030565619,-4.624766927,1.165383993,4.879411284
6.458631292,-1.097453673,-5.276504016,1.09042035,5.498628532
6.468625292,-1.149649136,-6.145777407,1.136857767,6.354897219
6.478619292,-0.931880699,-6.789859321,0.866798265,6.908106142
6.488612292,-0.779322749,-6.981450359,0.696421511,7.059248967
6.498606292,-1.019830131,-7.354814374,0.923517426,7.482394831
6.508600292,-1.243887249,-7.5517217,0.531163372,7.67188964
6.518593292,-1.494404772,-7.79449517,-0.334846067,7.943520785
6.528587292,-1.835204181,-7.981321896,-1.447256625,8.316491167
6.538581292,-1.968506372,-7.658239258,-2.144452892,8.192821497
6.548574292,-2.196677883,-7.243809078,-2.169328701,7.874271439
6.558568292,-2.691376009,-6.843636163,-2.215354329,7.68027705
6.568562292,-2.742638256,-6.184303542,-1.655439137,6.964779511
6.578555292,-2.188980316,-5.146563681,-0.423620834,5.608761642
6.588549292,-1.37716342,-3.491194711,0.460081001,3.781096947
6.598543292,-0.466527995,-1.739094082,0.730837637,1.943249919
6.608536292,0.179236456,0.073517042,0.58852094,0.619586442
6.618530292,1.0084342,2.609188423,0.267961375,2.810090223
6.628524292,1.715023434,5.50036876,0.379828697,5.774048122
6.638517292,1.913646626,7.934842379,0.110564416,8.163087129
6.648511292,2.178883929,9.363547543,-0.403176629,9.622167592
6.658505292,1.294860936,9.544411864,-0.717149598,9.658507453
6.668498292,-0.496948426,8.200248082,-0.3809882,8.224121738
6.678492292,-1.255484324,6.822467489,0.12879925,6.938219712
6.688486292,-0.885875391,6.469731866,-0.267631153,6.535581998
6.698479292,-0.029340159,6.316144806,-0.650376149,6.349609058
6.708473292,0.874233292,6.058384922,-0.599807089,6.150453663
6.718467292,1.41571382,5.768298122,-0.492755388,5.959892341
6.728460292,1.745107651,5.496639991,1.337893812,5.920169909
6.738454292,2.243533669,5.322373084,2.937132436,6.479802892
6.748448292,3.012576428,5.210315874,3.584345241,7.005036692
6.758441292,3.537590028,4.991760401,3.55956825,7.078328986
6.768435292,3.568116294,4.404449104,3.354794372,6.58674966
6.778429292,3.240294488,3.489300798,2.777891996,5.51284068
6.788422292,2.705295598,2.216384169,1.992931361,4.025265019
6.798416292,2.150059202,0.863230879,1.558169243,2.792098407
6.808410292,1.71012259,-0.244325906,0.897911299,1.946910148
6.818403292,1.180550209,-1.214824541,0.321467053,1.724192137
6.828397292,0.529277389,-1.909349799,-0.246818574,1.996664874
6.838391292,0.267026844,-2.154529399,-0.824552717,2.322323717
6.848384292,-0.293568233,-2.443682984,-1.177974364,2.728624641
6.858378292,-1.044914102,-2.973609121,-1.178905826,3.365117477
6.868372292,-1.605030291,-3.760247907,-0.879804373,4.182061967
6.878365292,-1.910515734,-4.588892505,-0.891622034,5.050048975
6.888359292,-1.972816063,-5.255496724,-1.228619292,5.746455812
6.898353292,-1.97426968,-5.735733808,-1.516364282,6.252658933
6.908346292,-1.968949591,-6.256533612,-1.012580899,6.636738311
6.918340292,-1.963495016,-6.323790625,-0.611952049,6.649821491
6.928334292,-2.042655206,-5.788372198,-0.65483889,6.173046814
6.938327292,-1.906025072,-4.999803246,-0.730513701,5.400427237
6.948321292,-1.960381081,-4.509154025,-1.459287271,5.12884815
6.958315292,-2.454861106,-4.979218124,-2.341255553,6.024984127
6.968308292,-3.019510934,-5.758706349,-2.216640862,6.869762864
6.978302292,-3.715686569,-6.28952828,-1.453229556,7.448246023
6.988296292,-4.554563502,-6.859221332,-0.375054372,8.242186103
6.998289292,-5.46978139,-6.717972482,0.785208484,8.698632944
7.008283292,-6.754225804,-6.231265454,1.405284873,9.29640043
7.018277292,-7.640599962,-5.135758027,1.409920399,9.313573634
7.028270292,-7.89712316,-4.260870724,0.331503725,8.979391308
7.038264292,-6.518963667,-2.474125927,-2.541235006,7.421324798
7.048258292,-3.426975034,0.783763125,-5.389230148,6.434457561
7.058251292,-0.110721706,7.572703264,-7.237989929,10.47600077
7.068245292,3.491151441,12.39268358,-8.262419772,15.29818045
7.078239292,7.059912391,9.074793323,-4.718227068,12.42802895
7.088232292,6.299495444,0.522273302,4.916234255,8.007856861
7.098226292,1.548699385,-4.190985972,9.372673877,10.38315216
7.10821975,-0.48462425,-1.713044736,2.308313655,2.915080593
7.11821275,0.814424462,1.619761181,-5.329974464,5.629879331
7.12820675,4.090172372,4.714153898,-5.347003895,8.218467476
7.13820075,6.540875523,7.851360512,-0.466363834,10.22958502
7.14819375,8.041733574,9.779374039,3.767288539,13.20977284
7.15818775,8.138745314,9.469197375,4.946473131,13.43028185
7.16818175,6.476905814,7.397299658,3.126033754,10.31709446
7.17817475,4.886013798,6.077563789,1.007317309,7.862862113
7.18816875,3.419942295,5.320257561,-0.837432379,6.3798463
7.19816175,2.209197064,4.804191663,-1.914587735,5.623740339
7.20815575,1.31297678,4.579124731,-2.157689234,5.229523321
7.21814975,1.070042803,4.433673488,-1.105071718,4.692934658
7.22814375,1.154910168,4.590439678,0.244530485,4.739804753
7.23813675,1.223417901,4.858327525,0.265302134,5.017019326
7.24813075,1.28930842,4.358754283,0.113133683,4.546851035
7.25812475,1.110446771,3.343726178,-0.171932698,3.527486022
7.26811775,1.072209489,2.106200992,-0.886689323,2.524268956
7.27811175,0.978856937,0.780107446,-0.51137062,1.35211998
7.28810575,0.637731838,-0.533056152,0.125387692,0.840578867
7.29809875,-0.078913438,-1.6312609,-0.894157972,1.861923182
7.30809275,-0.657933675,-2.618372059,-0.693004982,2.787293467
7.31808675,-0.900042902,-3.45372166,0.885460238,3.677269417
7.32807975,-1.101923577,-4.274959005,1.065377895,4.5414249
7.33807375,-1.203980294,-4.959510668,0.674616659,5.14795321
7.34806775,-1.39275122,-5.351614425,0.428900285,5.546484325
7.35806075,-1.844576098,-5.625880998,0.406910076,5.93452389
7.36805475,-2.328857701,-5.844211938,0.406763896,6.304272221
7.37804875,-2.460445781,-6.084979813,0.046302968,6.563757821
7.38804175,-2.317504455,-6.4103224,-0.4005179,6.828138455
7.39803575,-1.997551831,-6.614382625,-0.53095174,6.929803791
7.40802975,-1.587390411,-6.526652756,-0.664823157,6.749740317
7.41802275,-1.343524388,-6.201345252,-0.452444756,6.36132431
7.42801675,-1.167394558,-5.751791432,0.226812289,5.873445202
7.43801075,-1.110220191,-5.372558566,0.572724248,5.515885014
7.44800375,-1.230379304,-5.340959044,0.882409819,5.551425387
7.45799775,-1.508405052,-5.600587698,1.181552714,5.919285022
7.46799175,-1.740850586,-5.835126534,0.813570842,6.143383428
7.47798475,-1.721115941,-5.804160849,0.080175778,6.054498444
7.48797875,-1.589841564,-5.285481831,0.176922712,5.522247371
7.49797275,-1.795302197,-4.424685148,0.449773529,4.796169812
7.50796575,-1.999058951,-3.412919789,-0.034707026,3.955434585
7.51795975,-1.466053085,-1.728506529,-0.724995099,2.379635342
7.52795375,-0.354829219,0.87150235,-1.473872712,1.748634008
7.53794675,0.821095258,4.094297583,-1.788260833,4.542614548
7.54794075,2.095195947,7.549531918,-1.272016011,7.937461998
7.55793475,2.669818786,9.847457263,-1.17531315,10.27042881
7.56792775,0.093546095,10.02253576,-2.39266018,10.30460076
7.57792175,-3.040229081,9.495596384,-1.100088282,10.03092906
7.58791575,-2.939511083,8.941522415,-0.498025045,9.425474919
7.59790875,-1.701378664,7.564012547,-1.639628266,7.924478281
7.60790275,-0.432871421,6.39352218,-1.473021212,6.575279084
7.61789675,0.87736126,6.035849168,-0.02730372,6.099342871
7.62788975,1.887548456,6.746141444,2.354297767,7.390262616
7.63788375,2.763413413,7.910241973,4.478721022,9.500911733
7.64787775,3.135252767,8.401495796,3.857233919,9.761823346
7.65787075,3.236405212,7.974395869,3.215323369,9.187143873
7.66786475,3.214905585,7.092055705,3.082880133,8.374784891
7.67785875,2.877107259,5.669205943,2.373822205,6.786212056
7.68785175,2.234930076,4.177235659,1.696942382,5.032278176
7.69784575,1.120418613,2.981849018,1.041335167,3.351289358
7.70783975,-0.026966482,1.971558911,0.357925904,2.003966737
7.71783275,-0.974798969,1.158032289,-0.345045365,1.552523145
7.72782675,-1.613725101,0.528790024,-0.781338285,1.869282511
7.73782075,-2.108934565,0.005133855,-0.998727822,2.333471367
7.74781375,-2.555156642,-0.559428849,-1.11984237,2.845317739
7.75780775,-2.862643586,-1.150048501,-1.052023293,3.259462052
7.76780175,-2.96180944,-1.66715228,-0.955142823,3.530440439
7.77779475,-2.972251983,-2.221744897,-0.78903746,3.793812376
7.78778875,-2.831861797,-2.938795969,-0.581884935,4.122445034
7.79778275,-2.557514239,-3.710108618,-0.465404306,4.530164037
7.80777575,-2.293209566,-4.455514008,-0.570934415,5.043449345
7.81776975,-2.174672764,-5.115841826,-1.169322093,5.68052404
7.82776375,-2.134639802,-5.704634222,-1.519930938,6.277716842
7.83775675,-2.086497337,-6.00714811,-1.508258287,6.535605757
7.84775075,-2.088700275,-6.397063254,-1.441560853,6.882091601
7.85774475,-2.056874173,-6.860322363,-1.118379396,7.248829337
7.86773775,-1.969791298,-7.337356342,-0.129024807,7.598257909
7.87773175,-1.989756031,-7.759953328,1.037790658,8.077933781
7.88772575,-2.598099763,-8.289953726,1.238761287,8.775419345
7.89771875,-3.823731712,-8.698576452,1.040085179,9.558657524
7.90771275,-5.49731359,-8.616649944,1.433007545,10.32088289
7.91770675,-6.824776554,-7.720871708,1.825068033,10.46519509
7.92770075,-6.971983716,-6.406235197,0.760687673,9.498792138
7.93769375,-5.899021983,-4.64906971,-0.556111066,7.531372321
7.94768775,-4.655371839,-2.426843002,-1.912358192,5.587411545
7.95768175,-2.93632669,1.497120511,-3.119520541,4.538148594
7.96767475,-0.212178791,8.504365277,-4.570648608,9.657125726
7.97766875,3.930804171,13.43324823,-6.050222794,15.24823187
7.98766275,7.037715776,9.700272905,-3.081176255,12.37410138
7.99765575,5.387517498,1.48187682,3.286583093,6.482509709
8.00764975,3.348801269,-1.039553082,3.473884614,4.935890482
8.01764375,3.305132508,0.85342042,0.179735223,3.418264481
8.02763675,4.46795162,3.512621832,-0.915177543,5.756618257
8.03763075,5.703972902,6.351954909,1.132668822,8.61194384
8.04762475,6.503380837,7.897854647,2.813649182,10.61068763
8.05761775,6.541412297,6.979388046,3.465969822,10.17422622
8.06761175,5.687182038,5.765490873,2.321524124,8.424630484
8.07760575,4.253049488,5.005062232,1.107376106,6.660732672
8.08759875,2.638303463,4.770062635,0.073379048,5.451561904
8.09759275,1.90601864,4.889290286,-0.56845695,5.278371895
8.107587292,1.981540985,4.892044909,-0.744420719,5.330363053
8.117580292,1.492585703,4.78162258,-0.744374526,5.06417022
8.127574292,1.084983901,4.347785491,-0.086516581,4.481954246
8.137568292,1.182359045,3.939380867,0.418844828,4.134262391
8.147561292,1.096257918,3.369933398,0.540357571,3.584720189
8.157555292,1.123834264,2.601126866,0.422439111,2.864841921
8.167549292,1.170563457,1.723092592,-0.08102896,2.084666059
8.177542292,0.907061607,0.697681001,-0.511293401,1.253371645
8.187536292,0.46529277,-0.255126298,-0.417313442,0.675083179
8.197530292,0.109517472,-1.0101679,-0.383560975,1.086071951
8.207523292,-0.117095464,-1.780508156,-0.006349491,1.784365702
8.217517292,-0.360482599,-2.632895958,0.381694543,2.684730816
8.227511292,-0.572991758,-3.419224257,0.664054248,3.529926645
8.237504292,-0.742156385,-4.120398384,0.744087428,4.252310554
8.247498292,-0.78981207,-4.674764714,1.066714568,4.85953786
8.257492292,-0.947621988,-5.205247507,1.065382572,5.397001859
8.267485292,-1.140483041,-5.700239455,0.679586792,5.852800152
8.277479292,-1.262798899,-5.999824473,0.319076711,6.139573659
8.287473292,-1.480275267,-6.403914437,0.249406497,6.577502458
8.297466292,-1.609272738,-7.080065405,0.450274197,7.274601827
8.307460292,-1.568040513,-7.42466989,0.346677908,7.596358311
8.317454292,-1.541641796,-7.283577161,0.140810272,7.446273109
8.327448292,-1.757719218,-6.739925854,0.461813019,6.980648152
8.337441292,-2.167496476,-6.106063119,0.909092272,6.542820229
8.347435292,-2.6613795,-5.916998663,1.374612572,6.631996211
8.357429292,-3.111494945,-6.049574338,1.629534364,6.995293611
8.367422292,-3.122931806,-5.473182716,1.255973151,6.425410544
8.377416292,-2.559107313,-4.312701028,1.145075883,5.143891443
8.387410292,-1.519673806,-3.106374246,1.27876209,3.687031586
8.397403292,-0.534441065,-2.024126549,0.631935347,2.186791673
8.407397292,0.655501234,-0.745693073,0.157448853,1.005251296
8.417391292,2.633880045,1.747847364,0.425518548,3.189570587
8.427384292,4.605281374,4.833222504,-0.041273887,6.676103642
8.437378292,5.87680958,6.932836023,-0.140883106,9.089606934
8.447372292,6.189930317,9.309959566,-0.224732763,11.1821773
8.457365292,3.819027335,10.28582302,-0.85436153,11.00513783
8.467359292,0.329977383,8.874167753,-0.702621313,8.908053384
8.477353292,-1.643739443,6.897788397,-0.095856915,7.091583228
8.487346292,-2.156077449,5.874444966,0.546162102,6.281406424
8.497340292,-2.048266194,5.409714113,0.434356029,5.80078153
8.507334292,-1.407559294,5.32806184,-0.373392082,5.523485112
8.517327292,-0.257830051,5.484202963,-0.115921927,5.491483986
8.527321292,0.806415823,5.409797729,1.119785067,5.583022169
8.537315292,1.658322692,5.297481487,2.066227964,5.92306021
8.547308292,2.53608624,5.270033487,2.303817585,6.285901832
8.557302292,3.106829744,4.84584255,2.05502733,6.112096073
8.567296292,3.153703656,3.936453166,1.578460836,5.28517255
8.577289292,2.784361648,2.646619958,1.270526871,4.046171712
8.587283292,2.179542325,1.425058256,1.002606573,2.790414973
8.597277292,1.375438199,0.342666718,0.47095346,1.493669267
8.607271292,0.489324827,-0.531165163,0.239462046,0.760866143
8.617264292,-0.546597719,-1.100578133,-0.063846917,1.230494909
8.627258292,-1.484056077,-1.491960343,-0.242613403,2.118308138
8.637252292,-2.194893021,-1.75245497,-0.37848793,2.83406191
8.647245292,-2.744101229,-2.262049754,-0.568405641,3.601394955
8.657239292,-2.933388464,-2.798280945,-0.477899952,4.08209903
8.667233292,-2.874103252,-3.420882527,-0.565041445,4.503573981
8.677226292,-2.757236415,-4.289077692,-0.622589303,5.136745812
8.687220292,-2.570905532,-5.452354349,-0.79503144,6.08027945
8.697214292,-2.387406456,-6.438805357,-1.599529815,7.05098714
8.707207292,-2.244884668,-6.569249137,-1.634769815,7.132111451
8.717201292,-2.296532539,-5.966865472,-0.629644407,6.424484209
8.727195292,-2.677404672,-5.596039149,0.093844303,6.20426923
8.737188292,-2.804745042,-5.811089215,-0.202023786,6.455708035
8.747182292,-2.403723696,-6.227573522,-1.113028609,6.767524826
8.757176292,-2.142989626,-6.646903669,-1.370870939,7.117093512
8.767169292,-2.525427058,-6.87288569,-0.745490687,7.360033689
8.777163292,-3.276614175,-6.820053758,0.553610797,7.586555123
8.787157292,-4.162052779,-6.719175839,0.951561842,7.960871638
8.797150292,-4.897150698,-6.144474063,0.555152196,7.876854729
8.807144292,-4.98320417,-4.835093613,0.047924803,6.943540224
8.817138292,-4.046224407,-2.850422906,-0.650758849,4.99202662
8.827131292,-2.118064115,0.098513305,-2.106425525,2.988800589
8.837125292,0.62271268,4.753079397,-4.099632583,6.307655836
8.847119292,3.315398465,10.43748225,-5.563245624,12.28342805
8.857113292,5.990111078,10.9684492,-4.107208235,13.15513086
8.867106292,5.88115757,5.657270021,2.713854167,8.599867609
8.877100292,2.022135572,-0.010250169,8.063181746,8.312883808
8.887094292,0.097883852,0.53956118,3.474735968,3.517740406
8.897087292,0.182521714,2.185614367,-3.933889162,4.503965838
8.907081292,1.762192338,3.755871266,-4.980699223,6.482226127
8.917075292,3.110387482,5.814688761,-0.791116583,6.64160983
8.927068292,4.014163831,7.120628124,2.972177138,8.697740689
8.937062292,4.43562178,7.279366581,4.701898134,9.735079068
8.947056292,4.653587561,6.647838639,3.153230909,8.705888864
8.957049292,5.14896104,5.913614879,0.40918753,7.851756183
8.967043292,4.939997925,5.344447492,-0.513902501,7.295943686
8.977037292,4.130617271,4.882683517,-0.130170788,6.396838422
8.987030292,3.22132729,4.772615529,0.063317159,5.758369349
8.997024292,2.491483679,4.651101032,-0.118100892,5.277705899
9.007018292,2.033378891,4.3594846,0.008331661,4.810385131
9.017011292,1.711061361,3.987243835,0.345241283,4.352589566
9.027005292,1.448019979,3.405411964,0.77590973,3.780956019
9.036999292,1.289292048,2.629235017,0.676149214,3.005383256
9.046993292,1.001809305,1.823198093,0.038244902,2.080657551
9.056986292,0.533159063,0.743193973,-0.736190763,1.17412636
9.066980292,0.170929901,-0.422040331,-1.246992998,1.3275265
9.076974292,-0.133599814,-1.608090139,-0.514207653,1.693579734
9.086967292,-0.345293872,-2.622525337,0.391271113,2.673940927
9.096961292,-0.682282358,-3.371912096,0.698561007,3.510454085
9.106955292,-1.153078528,-4.044350082,0.680986615,4.26029347
9.116947792,-1.504345331,-4.702330828,0.738263601,4.991993913
9.126941792,-1.832577319,-5.189404476,0.792402971,5.560230294
9.136935792,-1.944306501,-5.562431107,0.852466739,5.953794348
9.146928792,-1.855058109,-6.150176852,0.533802842,6.445995763
9.156922792,-1.78378786,-6.681384115,0.169538848,6.917480484
9.166916792,-1.750236536,-7.019830897,0.208591159,7.237738876
9.176909792,-1.781959728,-7.044607889,0.348473003,7.274841181
9.186903792,-1.862054011,-7.118110313,0.353355391,7.366111566
9.196897792,-1.963559043,-7.263830529,0.298301554,7.530456951
9.206890792,-2.020417368,-7.393251631,0.159966883,7.666018877
9.216884792,-2.056982931,-7.313741777,-0.357990004,7.605928898
9.226878792,-2.012487959,-6.757155259,-0.480372228,7.066824779
9.236872792,-2.129196629,-6.324437912,0.128901796,6.674474426
9.246865792,-2.456056277,-6.096617526,0.295295281,6.579373602
9.256859792,-2.606227685,-5.591371316,0.239584984,6.173593516
9.266853792,-2.509966435,-4.849039807,1.055241162,5.561173659
9.276846792,-1.979954928,-3.527481946,1.532504352,4.325727683
9.286840792,-1.660130943,-2.880497475,0.610872653,3.380305585
9.296834792,-1.348323783,-2.432446389,0.069345931,2.782010302
9.306827792,-0.288774685,-0.803866437,0.031997133,0.854760717
9.316821792,1.446137468,2.053004778,-0.193114968,2.518617793
9.326815792,3.048211992,5.555057184,0.095990816,6.337150061
9.336808792,4.493967052,9.510337214,1.33052749,10.60247882
9.346802792,5.429833213,13.87430838,0.214153104,14.90051621
9.356796792,3.797723297,15.42300894,-0.568860116,15.89388275
9.366789792,0.794680461,12.70367944,2.906217622,13.0560748
9.376783792,-0.158451943,9.474959221,3.958129964,10.26970068
9.386777792,0.400300968,7.727483155,2.337622678,8.083236763
9.396770792,1.617301843,6.327891278,2.163245258,6.880225528
9.406764792,3.193393971,5.766340474,2.114375692,6.922357408
9.416758792,4.355014989,6.084264699,2.464549942,7.877717873
9.426752792,4.739741898,5.960983758,3.768291922,8.496970321
9.436745792,4.380239292,5.49458294,4.244066995,8.209082933
9.446739792,3.814275595,5.011409385,4.034450454,7.479285581
9.456733792,3.439794469,4.455228079,3.564740989,6.662478634
9.466726792,2.919434376,3.676522211,2.516947134,5.326812886
9.476720792,2.279999537,2.831161008,1.585128708,3.965665589
9.486714792,1.552310918,1.996425365,0.800181229,2.652484387
9.496707792,0.639785672,1.116946244,0.225331665,1.30677809
9.506701792,-0.195761272,0.379251577,0.078035771,0.433870736
9.516695792,-0.936741489,-0.377900285,-0.256288286,1.042102168
9.526688792,-1.675783062,-1.345028585,-0.864313491,2.316114975
9.536682792,-2.350907552,-2.260486209,-1.559940072,3.61524235
9.546676792,-2.921570949,-3.103833046,-2.208617313,4.800765233
9.556669792,-3.344624018,-3.641875704,-2.662002228,5.615694465
9.566663792,-3.612625008,-4.07467959,-2.977954772,6.206632568
9.576657792,-3.770909428,-4.811009517,-2.911991748,6.770913263
9.586650792,-3.712735187,-5.593471051,-2.20229238,7.065508665
9.596644792,-3.635307234,-5.957267268,-1.560178639,7.151129237
9.606638792,-3.6074166,-6.277133937,-1.479091791,7.389423355
9.616632792,-3.559465047,-6.526507745,-1.436712341,7.5716073
9.626625792,-3.264810986,-6.632148805,-0.80233856,7.435599217
9.636619792,-2.523995952,-6.471791255,-0.351951548,6.955466016
9.646613792,-1.950267445,-6.240455523,0.543356023,6.560645091
9.656606792,-1.988655877,-6.05468305,1.032045842,6.455931974
9.666600792,-2.460006655,-5.869957813,1.416544125,6.520324741
9.676594792,-2.910281145,-6.144569373,1.830942146,7.041151771
9.686587792,-3.035034414,-6.882673345,1.531378763,7.676441049
9.696581792,-3.135351292,-7.723810519,0.432172387,8.347122237
9.706575792,-3.28523151,-7.971693871,-0.21452791,8.624770807
9.716568792,-3.485348665,-7.173825508,-0.081337182,7.976091992
9.726562792,-3.844363028,-6.211912925,-0.185295998,7.307620945
9.736556792,-3.606260606,-4.602500145,-0.358743052,5.858055968
9.746549792,-2.877556033,-2.193305794,-0.534495079,3.657404
9.756543792,-1.448293921,1.262470577,-0.260979434,1.938942368
9.766537792,0.398570192,7.149043838,-0.935718811,7.221028714
9.776531792,3.031245126,12.09191918,-4.70824821,13.32556031
9.786524792,6.477094095,9.875273638,-7.539175914,14.01117236
9.796518792,4.823820181,3.6909087,-3.397108333,6.959338561
9.806512792,-0.050033455,0.55861784,3.652966118,3.695770379
9.816505792,-3.484008483,0.673230869,2.945546579,4.611702458
9.826499792,-3.122480986,1.638629562,-3.734150029,5.136036487
9.836493792,0.249450698,4.661733609,-3.403440868,5.777317339
9.846486792,3.575848652,9.475930443,-0.729619662,10.15442249
9.856480792,7.168251942,13.70092908,2.366929507,15.64294246
9.866474792,9.42889778,12.69294161,5.099035758,16.61370054
9.876467792,8.843832398,8.568143781,4.579058658,13.13751261
9.886461792,5.197255533,6.211467952,0.664099857,8.126181625
9.896455792,2.009453546,4.917532922,-1.588665689,5.54471751
9.906449792,0.359115228,4.13447731,-1.52974739,4.423007286
9.916442792,-0.279191391,4.165140694,-1.380755657,4.396911532
9.926436792,-0.505319593,4.043473585,-1.619744225,4.385042517
9.936430792,-0.523509696,3.848635588,-1.672653925,4.228927694
9.946423792,-0.432279975,3.648975978,-1.146075318,3.849075252
9.956417792,-0.169613985,3.447644064,-0.538806304,3.493612848
9.966411792,-0.004102991,2.90743969,-0.048067603,2.9078399
9.976404792,-0.019969411,2.040035069,-0.313800184,2.064125097
9.986398792,0.022604751,0.659179425,-1.239957043,1.404465007
9.996392792,-0.463122869,-1.087216076,-1.493018689,1.904107768
10.00638579,-1.036087145,-2.196337575,-1.310825297,2.759644592
10.01637979,-1.393673033,-2.91072641,-0.581975713,3.279229862
10.02637379,-1.653033008,-3.508230574,-0.123090906,3.880122582
10.03636679,-1.729249125,-4.185895386,0.314967288,4.539958933
10.04636079,-1.523693182,-4.788842137,1.244033722,5.177090866
10.05635479,-1.41792056,-5.425716773,1.548880649,5.8178976
10.06634879,-1.146941583,-5.95874369,1.467197385,6.242977616
10.07634179,-0.766832804,-6.347946643,1.42497581,6.550955288
10.08633579,-0.261614369,-6.600679091,1.458004392,6.7648491
10.09632979,0.22890943,-6.628679067,1.540777577,6.80924234
10.10632279,0.573926436,-6.425102992,1.679403366,6.665713441
10.11631762,0.649695241,-6.272776592,1.846171803,6.571010608
10.12631162,0.600017589,-6.377508411,1.77030535,6.645796842
10.13630462,0.59213525,-6.600642838,1.412296708,6.775964287
10.14629862,0.502378151,-6.930362066,0.541391358,6.969605927
10.15629262,0.275841229,-7.197638294,-0.32012921,7.210032462
10.16628562,-0.104630662,-7.051562567,-0.706081696,7.087597165
10.17627962,-0.438374236,-6.568417663,-0.794959373,6.630855373
10.18627362,-0.640405185,-5.863021846,-0.769300549,5.947854008
10.19626762,-0.684124816,-4.51397447,-0.580276548,4.602250879
10.20626062,-0.740117753,-2.233852726,-0.251411562,2.366660108
10.21625462,-0.910380779,0.081607835,-0.269734433,0.95300035
10.22624862,-1.142058281,2.097548282,-1.061933885,2.613753907
10.23624162,-1.475519727,3.528075439,-1.93305675,4.284995119
10.24623562,-1.801878853,4.565333489,-2.014528345,5.305408723
10.25622962,-1.51331876,6.514905699,-2.130201473,7.019393724
10.26622262,-0.795200279,8.874031513,-1.917070463,9.113503055
10.27621662,-0.270488688,11.0042821,-1.010566095,11.05389671
10.28621062,0.77361002,12.89164169,0.453328746,12.92278627
10.29620362,1.70169763,12.64688894,1.530571847,12.85232371
10.30619762,2.406343541,10.00899244,0.544951107,10.3086076
10.31619162,3.201447926,6.486137983,-0.325298112,7.240516116
10.32618562,3.805445422,3.576161186,0.001278201,5.222101619
10.33617862,3.786223285,2.525054006,-0.922220514,4.643476626
10.34617262,3.618152965,2.646220593,-1.087294428,4.612561488
10.35616662,3.296628025,3.565249112,-0.402282626,4.872431516
10.36615962,2.815952692,4.739835454,-0.133453342,5.51483812
10.37615362,2.604769974,5.354210588,0.013130544,5.954206081
10.38614762,2.466679206,4.807681866,0.285154674,5.411064999
10.39614062,2.216628583,3.421013505,0.306384708,4.087865857
10.40613462,1.755862727,1.843179199,0.226359678,2.555699939
10.41612862,1.169282917,0.495170288,0.169817176,1.281114369
10.42612162,0.38149223,-0.599858252,0.204825625,0.739810639
10.43611562,-0.568670958,-1.632519221,0.012888433,1.728777539
10.44610962,-1.450790975,-2.542531918,-0.02039041,2.927401369
10.45610362,-2.237693177,-3.453363225,-0.278283026,4.124370227
10.46609662,-2.75750948,-4.121763709,-0.38260554,4.973849777
10.47609062,-3.171853998,-4.629423065,-0.26809016,5.618192595
10.48608462,-3.438621225,-5.070853933,0.02700595,6.126859299
10.49607762,-3.452460415,-5.501403717,0.631913273,6.525660133
10.50607162,-3.469241924,-5.962497602,0.922933874,6.959800581
10.51606562,-3.502528954,-6.380410384,0.860434155,7.329235477
10.52605862,-3.381713784,-6.647682518,0.932901038,7.516513509
10.53605262,-2.987915504,-6.740336328,1.352017761,7.495847177
10.54604662,-2.510000349,-6.802206302,1.136492901,7.33905501
10.55603962,-2.127141333,-7.113906165,0.727529283,7.460676245
10.56603362,-1.658747492,-7.403481334,0.752687513,7.624271611
10.57602762,-1.323078722,-7.604646018,0.733862987,7.753691588
10.58602162,-1.062101407,-7.722256329,0.65770768,7.822651827
10.59601462,-0.761631998,-7.644519351,0.215108539,7.685377746
10.60600862,-0.431052352,-7.147917665,-0.261961108,7.165693037
10.61600262,-0.236884155,-6.176052536,-0.528898197,6.203182436
10.62599562,0.139732667,-4.671772694,-0.492554244,4.699744143
10.63598962,0.818977689,-2.62489112,-0.224967054,2.758874412
10.64598362,1.563792803,0.100913002,0.115683653,1.571309668
10.65597662,2.293784932,3.231104711,0.130310975,3.964652308
10.66597062,3.015118213,6.410426481,-0.593343833,7.108907258
10.67596462,2.477563505,8.564399809,-1.762818575,9.088167821
10.68595862,0.909068372,9.196536446,-1.183052013,9.316775192
10.69595162,-0.228855635,10.24152452,-0.319084751,10.24904944
10.70594562,-0.455941026,12.01997854,-0.400188044,12.03527802
10.71593962,-0.028137094,13.39822107,-0.403554907,13.40432677
10.72593262,0.23952885,12.8114635,-1.07700099,12.85888418
10.73592662,0.450342609,10.66635514,-0.972057502,10.72002034
10.74592062,0.616493581,8.564393962,-1.163731497,8.665055064
10.75591362,1.065402161,7.024036215,-1.546424818,7.270735604
10.76590762,1.752405853,6.242137767,-0.875493002,6.542300679
10.77590162,2.408413456,6.174936302,0.022107189,6.628030057
10.78589462,2.620944834,6.655290331,1.001754195,7.222586287
10.79588862,2.56909348,6.570541372,1.630035324,7.240805921
10.80588262,2.210478774,5.425962941,1.441343336,6.033635791
10.81587662,1.526592232,3.450288759,0.785971034,3.853923563
10.82586962,0.768786359,1.376954967,0.048628954,1.577783959
10.83586362,0.199074012,-0.392134162,-0.199598142,0.482948322
10.84585762,-0.221502469,-1.978882549,-0.291252114,2.012428205
10.85585062,-0.551332794,-3.279481065,-0.071214464,3.326264482
10.86584462,-0.92025468,-4.47562726,0.048887401,4.569518358
10.87583862,-1.18913743,-5.495295716,-0.062541782,5.62283152
10.88583162,-1.447277383,-6.435245572,0.189433415,6.598703086
10.89582562,-1.651543137,-7.257290418,0.572754654,7.46484473
10.90581962,-1.793429334,-7.904540938,0.897514858,8.154979408
10.91581362,-1.923908197,-8.464977263,1.055166317,8.744749211
10.92580662,-1.93612303,-8.775356825,1.214320511,9.068077751
10.93580062,-2.053498283,-8.821549244,1.41426605,9.167155214
10.94579462,-2.243077001,-8.852348868,1.290651233,9.222865906
10.95578762,-2.132887392,-8.763919671,1.380288464,9.124729743
10.96578162,-1.935527784,-8.470806937,1.548605245,8.826041931
10.97577562,-1.756608832,-8.313835509,1.164996908,8.576873163
10.98576862,-1.716341104,-8.287286226,0.355106084,8.470598569
10.99576262,-1.792484716,-8.215827988,-0.373749347,8.41739387
11.00575662,-1.874862921,-7.754937587,-0.837274504,8.022169067
11.01575062,-1.983647737,-7.248592685,-1.163722215,7.604683008
11.02574362,-1.879840071,-6.824823332,-1.470151398,7.230031628
11.03573762,-1.771356387,-6.073257315,-1.971890448,6.62650057
11.04573162,-1.670124419,-4.697634344,-2.041806775,5.387583773
11.05572462,-1.400789972,-2.243048058,-1.353796484,2.9708992
11.06571862,-0.838079373,1.241273251,-0.087124664,1.500242323
11.07571262,-0.32616529,4.788666136,1.042943298,4.911765251
11.08570562,0.52945456,8.169636154,0.702746444,8.21688077
11.09569962,1.153609455,9.878219465,-1.188903834,10.01616328
11.10569362,0.838122058,10.26273821,-2.654409034,10.63353805
11.11568579,0.048642402,11.12359454,-3.941501652,11.8013625
11.12567979,-0.36543753,12.50524833,-3.491716282,12.9887206
11.13567379,0.44457053,13.75090641,-0.725268749,13.77719437
11.14566779,2.493429925,14.18753437,1.475646611,14.48036109
11.15566079,5.172670915,13.75427323,0.995076821,14.72843286
11.16565479,6.089511405,10.89060287,-0.437916728,12.48515724
11.17564879,5.68304104,7.909664853,-1.002693404,9.791074896
11.18564179,4.562088284,6.633789534,-1.839724663,8.258595518
11.19563579,3.782686597,6.644399891,-1.16102314,7.733352607
11.20562979,3.228293955,7.032839783,0.191864651,7.740770589
11.21562279,2.308024657,6.823079107,0.730413129,7.23981282
11.22561679,1.279985327,5.773418528,0.324776577,5.922516675
11.23561079,0.407262663,4.176187254,-0.398113561,4.214842495
11.24560479,-0.377601492,2.187380226,-1.099630884,2.477176461
11.25559779,-0.80733676,0.180080793,-1.460899934,1.678824098
11.26559179,-0.890691742,-1.612452747,-0.710182933,1.974258199
11.27558579,-0.913766025,-3.269771179,-0.295798945,3.407912694
11.28557879,-0.807100532,-4.611570346,-0.228492815,4.687238131
11.29557279,-0.732735643,-5.696097288,-0.357587643,5.754154565
11.30556679,-0.741318771,-6.527769574,-0.105397232,6.570573621
11.31555979,-0.993978129,-7.055850915,0.605834692,7.15122789
11.32555379,-1.413534856,-7.562816207,1.116476712,7.774367499
11.33554779,-1.78594022,-8.085942033,1.518393266,8.41888111
11.34554179,-2.03560785,-8.5594326,1.7059813,8.962028673
11.35553479,-2.231943026,-8.94281348,1.657780362,9.365026339
11.36552879,-2.4026443,-9.399720758,1.762914469,9.860796996
11.37552279,-2.257675452,-9.599318388,1.817826841,10.02738781
11.38551579,-1.705244258,-9.13876771,1.955591919,9.499961736
11.39550979,-1.294210433,-8.770007207,1.741040035,9.034336028
11.40550379,-1.076648988,-8.681629466,1.358792346,8.853032242
11.41549679,-1.124137149,-8.502745013,1.065624647,8.642679734
11.42549079,-1.255253944,-8.174005194,0.834528651,8.311826601
11.43548479,-1.454546349,-7.860617239,0.609606146,8.017270615
11.44547879,-1.498503377,-7.394715773,0.142458054,7.54636522
11.45547179,-1.332728674,-6.406643332,-1.200531607,6.65300839
11.46546579,-1.28716717,-5.084922919,-2.642630403,5.873392194
11.47545979,-1.189617194,-3.356177239,-2.663383341,4.446653297
11.48545279,-1.010831559,-0.31146539,-1.986577485,2.250617967
11.49544679,-0.785580147,4.47080857,-0.740423489,4.599292596
11.50544079,0.307941566,8.635069258,0.878405134,8.685093245
11.51543479,1.704457515,10.6329652,1.556278546,10.88058488
11.52542779,0.71651956,7.976059402,2.265775015,8.322539293
11.53542179,-0.32076451,4.705184269,0.647955767,4.760409179
11.54541579,-0.679432425,4.710618086,-3.124514648,5.693341985
11.55540879,-1.236126532,7.208093115,-5.972386998,9.442140732
11.56540279,0.897695537,11.14066724,-3.889308236,11.8341473
11.57539679,3.320039984,12.59844593,0.141412645,13.0293324
11.58538979,5.608987808,12.26046751,2.472966424,13.70749323
11.59538379,6.591860905,11.16892566,1.115463974,13.01698085
11.60537779,6.338230909,9.149476885,-1.796327798,11.27443532
11.61537179,5.167550508,7.033313407,-2.70843029,9.138198421
11.62536479,4.471023163,6.412027448,-2.390917125,8.17438859
11.63535879,3.763518255,6.688405452,-1.20419898,7.768457525
11.64535279,2.667360617,7.142783225,0.207346908,7.627395204
11.65534579,1.574832931,6.821343069,1.088272083,7.084853996
11.66533979,0.502336051,5.367787823,1.201897516,5.523589889
11.67533379,-0.385811276,3.435518108,0.447798522,3.485994625
11.68532679,-0.812374428,1.617003635,-0.232171884,1.824433268
11.69532079,-0.953820621,-0.23467917,-0.609676349,1.156094002
11.70531479,-0.840161859,-2.042002657,-0.143435745,2.212740521
11.71530879,-0.85914923,-3.704694096,0.013228704,3.803034412
11.72530179,-0.86329052,-5.022670537,0.138045745,5.09819051
11.73529579,-0.766857947,-6.196081588,-0.110915852,6.244341477
11.74528979,-0.576845366,-7.063919488,0.417663106,7.099728979
11.75528279,-0.638165993,-7.708883162,1.267519648,7.838414476
11.76527679,-0.811238899,-8.208433599,1.865473462,8.456741804
11.77527079,-1.09248851,-8.749624398,2.003160773,9.042240394
11.78526379,-1.327473781,-9.096498773,1.803814573,9.368149421
11.79525779,-1.628087617,-9.441698504,1.281483384,9.666361238
11.80525179,-1.744451886,-9.507420623,1.404501784,9.767639661
11.81524579,-1.795181452,-9.139871079,1.308831396,9.40600656
11.82523879,-1.841177697,-8.868175526,1.219444937,9.139010802
11.83523279,-1.691654452,-8.660805193,1.172123494,8.901972526
11.84522679,-1.595001439,-8.447328612,0.818548211,8.635474013
11.85521979,-1.626293398,-8.204088534,0.419872184,8.374257671
11.86521379,-1.735479333,-7.949786693,0.07667918,8.137375294
11.87520779,-1.973392598,-7.731665668,-0.196153035,7.981942644
11.88520079,-2.200445244,-7.166677287,-0.337356203,7.504467457
11.89519479,-2.453492857,-6.422126175,-0.052370624,6.87503269
11.90518879,-2.301619032,-5.513569434,0.393428151,5.987627559
11.91518279,-1.537579735,-3.947250634,0.553418496,4.272143612
11.92517579,-0.321421444,-1.819259993,0.216960937,1.860131908
11.93516979,1.539264902,0.362581165,0.172526776,1.590775606
11.94516379,3.569503546,2.810858306,-0.229644132,4.549177553
11.95515679,4.583485585,5.195047039,-0.549744106,6.949753408
11.96515079,5.057121162,8.307863163,-0.221160992,9.728513605
11.97514479,4.928696426,11.75278886,0.49810676,12.75414461
11.98513879,4.116465547,14.33633431,2.128838926,15.06677555
11.99513179,2.701302242,14.69018909,4.296383496,15.54212343
12.00512579,1.379492366,12.43237799,5.58797116,13.70008917
12.01511979,1.535815045,10.32007016,5.893829071,11.98331328
12.02511279,2.372459219,7.92599905,4.745291491,9.537704914
12.03510679,3.372207673,6.60764254,1.908892839,7.660065038
12.04510079,5.287376329,6.743347644,3.671163822,9.322367173
12.05509379,6.256848192,7.377852988,4.161960686,10.53103892
12.06508779,5.618434569,7.318493809,3.715987408,9.946643708
12.07508179,4.755741634,6.716316551,3.418723443,8.911434031
12.08507579,3.041999325,5.118097097,2.512543011,6.462317709
12.09506879,1.412591115,3.279077023,1.774444886,3.987030779
12.10506279,0.461107626,1.721938936,1.264210124,2.185388107
12.11505729,0.326601785,0.3642178,0.523673418,0.71662904
12.12505029,0.506869397,-0.335062414,-0.474017108,0.770633263
12.13504429,0.584686482,-0.737433881,-1.404209424,1.690405607
12.14503829,0.347958448,-0.906140671,-1.566766112,1.843074075
12.15503129,-0.323553339,-1.110485655,-1.742194861,2.091197763
12.16502529,-0.712625607,-1.320462093,-1.845668651,2.378644186
12.17501929,-0.921810039,-1.372556691,-2.193026005,2.746453837
12.18501329,-1.576003835,-1.981637757,-2.475672808,3.541134301
12.19500629,-2.240644267,-3.021180314,-2.370203948,4.445883936
12.20500029,-2.647944645,-4.175559847,-2.17418803,5.401296555
12.21499429,-2.789660102,-5.449461147,-1.897277053,6.409250384
12.22498729,-2.650391412,-6.618987308,-1.805709217,7.355008728
12.23498129,-2.486515008,-7.663131623,-1.874483291,8.27164015
12.24497529,-2.252012424,-8.496298458,-2.218405406,9.065316872
12.25496929,-1.664291529,-9.067698312,-1.91410724,9.415775353
12.26496229,-0.993172967,-9.203947207,-1.950613015,9.460651557
12.27495629,-0.586907254,-8.125369223,-1.913324736,8.368207496
12.28495029,-0.922432183,-6.588327432,-1.818829054,6.896744059
12.29494329,-1.886260022,-6.95998523,-0.672080137,7.242310611
12.30493729,-3.257641422,-8.1548082,-0.589700981,8.80118581
12.31493129,-4.913611194,-8.459562156,-2.951777372,10.21864749
12.32492529,-6.071328903,-8.10293755,-3.298451772,10.64886922
12.33491829,-6.735406541,-7.812603412,-1.999949482,10.50724851
12.34491229,-7.039838315,-6.991372499,0.042044916,9.921712589
12.35490629,-6.756369978,-4.922466218,3.854088702,9.205064295
12.36489929,-6.966681461,0.104927115,8.816867963,11.23756295
12.37489329,-8.300971634,4.034028577,6.641228946,11.37037548
12.38488729,-5.17534777,8.388695072,-1.814921944,10.02239349
12.39488129,0.119509194,11.14466439,-11.10081846,15.73041632
12.40487429,5.469588432,11.22551735,-15.56967231,19.95854036
12.41486829,6.06230665,6.809039943,-9.302611955,13.02509793
12.42486229,2.493464716,1.222047021,0.153475451,2.781064531
12.43485529,-0.655060061,-1.818475297,7.651964026,7.892306985
12.44484929,-0.181478863,-2.213384548,5.681523103,6.100140203
12.45484329,3.914832794,1.41523084,-2.482092174,4.846604553
12.46483629,8.481335433,7.167374859,-4.117802805,11.84316736
12.47483029,12.98276236,11.26203205,1.500242339,17.25213643
12.48482429,15.22845102,9.585147076,8.669411709,19.97346901
12.49481829,11.89313139,5.336451425,9.983182833,16.41914211
12.50481129,6.910447619,4.77175248,3.558353491,9.120624298
12.51480529,4.378454137,5.622290808,-2.722025067,7.628265532
12.52479929,3.728802751,5.931450056,-3.585368797,7.870256612
12.53479229,3.087377519,5.88027581,-1.305518948,6.768598324
12.54478629,2.035138611,5.583544233,-0.489008492,5.962959389
12.55478029,1.393903706,5.132943762,-0.563613117,5.348620285
12.56477429,0.916949249,4.476453472,-0.632695631,4.612996355
12.57476729,0.859696237,3.744502525,-1.220102237,4.031008093
12.58476129,0.988294051,3.000004038,-1.540793949,3.514369837
12.59475529,0.643920238,2.004234322,-1.806596678,2.774054803
12.60474829,0.692671106,0.694763825,-1.123168266,1.491307141
12.61474229,1.022197961,-0.209605139,0.331358203,1.094815621
12.62473629,0.804773925,-1.143468629,0.502717289,1.485902503
12.63473029,0.319664941,-2.256452215,0.277717016,2.295841678
12.64472329,0.115388954,-3.10871664,0.761154866,3.20262244
12.65471729,-0.148384207,-4.143261582,1.116822867,4.293707923
12.66471129,-0.311368911,-5.155151487,1.258166442,5.315592182
12.67470429,-0.239057565,-5.856123301,1.097403095,5.962853527
12.68469829,-0.288713289,-6.275068116,0.677201128,6.318103876
12.69469229,-0.532847699,-6.573801194,0.490558004,6.613579664
12.70468529,-0.54738914,-6.847691208,0.423677552,6.882587625
12.71467929,-0.388501579,-7.273207124,0.349133738,7.29193868
12.72467329,-0.439024739,-7.680027153,0.10046452,7.693221231
12.73466729,-0.638663591,-7.850178205,0.408445555,7.886698726
12.74466029,-0.836999685,-7.585103454,0.991483122,7.695284378
12.75465429,-0.90564892,-7.377751831,1.330792369,7.551319777
12.76464829,-0.887459694,-7.545321338,1.197277631,7.691094364
12.77464129,-0.793014882,-7.928651347,0.783314644,8.006620174
12.78463529,-0.64651494,-7.994267047,0.055546795,8.020559372
12.79462929,-0.639679253,-7.573224251,-0.781986741,7.640315331
12.80462329,-0.699239869,-6.677331995,-1.327419695,6.843810489
12.81461629,-0.801402128,-5.536958297,-1.692282443,5.844995502
12.82461029,-0.946091772,-3.816557763,-1.886966073,4.361403875
12.83460429,-0.750862597,-1.507285895,-1.390272,2.183703653
12.84459729,-0.19341303,1.047375487,-0.813068127,1.339956638
12.85459129,0.754161888,4.243510925,-0.693495052,4.365441617
12.86458529,2.176052415,7.597797174,-0.186673018,7.905477394
12.87457829,3.197099059,9.78726778,-0.493636271,10.30804199
12.88457229,2.940632579,10.7722716,-2.113692883,11.36471966
12.89456629,1.524517055,10.03363495,-2.28752198,10.40340037
12.90456029,0.465193952,7.839994109,0.704615214,7.885327872
12.91455329,-0.19824897,6.832370333,1.832171669,7.076541531
12.92454729,-0.208096558,6.077459709,1.936426354,6.381893741
12.93454129,0.403307022,5.137279472,2.178187526,5.594532852
12.94453529,0.836283401,4.786826017,2.288505481,5.371250375
12.95452829,1.987950411,5.02986846,2.892501808,6.133358808
12.96452229,3.259885876,5.087104515,2.39975753,6.501101789
12.97451629,4.278086681,4.563875193,3.366656911,7.103897605
12.98450929,4.646320349,4.272890845,4.20165334,7.582860921
12.99450329,4.898532395,3.984980378,3.941709813,7.443975046
13.00449729,4.622291509,2.98392361,3.375355814,6.454642188
13.01449029,4.044054213,2.024085034,1.157535568,4.668102751
13.02448429,3.386828343,0.990480909,-0.98785551,3.664357674
13.03447829,2.563238078,-0.037037433,-1.77567134,3.118424269
13.04447229,1.789516377,-0.820441539,-1.383452393,2.406124208
13.05446529,1.275973552,-1.059162889,-0.708856784,1.803444613
13.06445929,0.847322944,-1.094488258,-0.575970915,1.499200858
13.07445329,0.33346437,-1.247656072,-0.89039295,1.568643925
13.08444629,-0.213625685,-1.374146549,-1.388940297,1.965469364
13.09444029,-0.721650784,-1.565253437,-2.024237939,2.658634501
13.10443429,-1.140784757,-1.853037019,-2.344900707,3.199014752
13.11442825,-1.702530858,-2.630151275,-2.187147506,3.820984332
13.12442125,-2.343874521,-3.891422004,-1.754862415,4.86995432
13.13441525,-2.559711038,-5.099157965,-1.308965444,5.853795613
13.14440925,-2.094952703,-6.133704076,-0.839821697,6.535782509
13.15440225,-1.470338509,-6.906705986,-0.437930725,7.075045316
13.16439625,-0.922147716,-7.366657909,-0.964890424,7.486589256
13.17439025,-0.37636656,-7.578329455,-1.777990199,7.793200771
13.18438425,-0.038039354,-7.320001806,-2.450695549,7.719441826
13.19437725,-0.374357165,-6.91920324,-2.206818709,7.272246254
13.20437125,-1.117418114,-6.375012234,-1.872460885,6.737619312
13.21436525,-2.199340705,-5.515660983,-1.5966945,6.148906321
13.22435825,-3.177993574,-5.045903864,-0.460951797,5.981075616
13.23435225,-3.966853133,-5.487466294,0.106903456,6.771974487
13.24434625,-4.804225577,-6.255420302,-0.950820415,7.944490293
13.25434025,-5.217178166,-6.476417572,-2.131418864,8.585212808
13.26433325,-5.391579559,-4.534977669,-0.494351678,7.062544596
13.27432725,-6.617980417,-1.843845781,2.838498679,7.433337529
13.28432125,-8.408998944,0.253798395,4.229785756,9.416303117
13.29431425,-9.012225192,3.644157287,4.520294141,10.72068768
13.30430825,-8.29516418,5.926522608,-0.522148903,10.20813688
13.31430225,-5.831529912,7.628602061,-8.007598699,12.50295755
13.32429625,-0.941689403,9.917893993,-9.906039348,14.04923541
13.33428925,4.174172888,9.463292856,-5.450052885,11.69105245
13.34428325,4.32778012,5.008546003,-4.460978816,7.982201816
13.35427725,3.527492764,1.309141883,-4.156920093,5.60687456
13.36427025,4.628435178,0.810744517,0.011635813,4.698920542
13.37426425,6.080411968,1.49045527,2.458983977,6.726029201
13.38425825,9.278262979,3.606566123,1.015191243,10.00620289
13.39425225,11.49928984,6.700920247,0.820489413,13.33451168
13.40424525,11.99755096,8.05210595,3.05834931,14.76926335
13.41423925,10.33198913,6.658796906,5.68660024,13.54352236
13.42423325,6.935064397,5.628622173,4.691856126,10.08910401
13.43422625,3.523183366,5.476099307,0.872769369,6.569795356
13.44422025,1.118835771,4.849099449,-3.292286468,5.966968169
13.45421425,-0.190203493,4.429969862,-5.017321504,6.695843892
13.46420825,-0.591858677,4.25357106,-4.050627068,5.903451795
13.47420125,-0.312582501,4.015580027,-1.68764794,4.367006565
13.48419525,0.488470841,3.779926711,0.231676661,3.818392827
13.49418925,1.402524841,3.246440789,0.873614364,3.642753873
13.50418225,2.045402521,1.97018657,1.153177346,3.065146747
13.51417625,2.522172498,0.153598169,1.733594191,3.064358877
13.52417025,2.886059931,-1.564391558,1.826722795,3.756804365
13.53416425,3.043721038,-3.033616757,1.471767569,4.542374727
13.54415725,2.74267217,-3.985757473,1.113629118,4.964744009
13.55415125,2.321526462,-4.543891749,1.559245423,5.335511562
13.56414525,1.748402265,-5.289159145,1.961190044,5.905792184
13.57413825,1.059526586,-5.973648827,2.014903736,6.392723517
13.58413225,0.482220167,-6.571162346,2.259417922,6.965463388
13.59412625,-0.070050228,-7.216717758,1.964732287,7.47971224
13.60412025,-0.21347395,-7.606513619,1.360256488,7.730130547
13.61411325,-0.129841224,-7.760229317,0.763704836,7.79879881
13.62410725,-0.368525737,-7.899433395,0.60638433,7.931239571
13.63410125,-0.875588677,-7.922353311,0.714901636,8.002588448
13.64409425,-1.191397379,-7.789887564,0.903974862,7.932146401
13.65408825,-1.339584827,-7.680870906,0.917532801,7.850613468
13.66408225,-1.368722087,-7.794091712,0.858431484,7.959784569
13.67407625,-1.190925508,-7.672654399,0.483292254,7.779556574
13.68406925,-0.808892704,-7.283681241,-0.006473452,7.32846244
13.69406325,-0.389499992,-6.609386179,-0.421343343,6.634246463
13.70405725,-0.240662333,-5.778756452,-0.637056484,5.818744319
13.71405025,-0.335263558,-4.73640957,-0.755391338,4.807971853
13.72404425,-0.320543193,-3.131058851,-0.98939552,3.299269762
13.73403825,0.188054934,-0.549447067,-1.098815855,1.242840706
13.74403225,1.354086799,2.629697531,-0.625218211,3.023203264
13.75402525,2.908500668,6.185284705,0.179041743,6.837337125
13.76401925,3.323886575,8.990272406,-0.022248656,9.58507772
13.77401325,2.893630029,10.29782385,-1.559908644,10.8097912
13.78400625,1.812448864,11.14171623,-3.363413168,11.77859752
13.79400025,-0.467864083,8.860158409,-2.342536678,9.176534309
13.80399425,-1.307992028,6.7640731,-0.506302363,6.907957016
13.81398825,-0.471083268,6.484536431,0.025602618,6.501675758
13.82398125,-0.36368892,5.643689278,0.430468216,5.671754683
13.83397525,0.507886228,4.80020854,-2.849737612,5.60543976
13.84396925,1.842329013,4.626814622,-3.572561933,6.129012033
13.85396225,3.372936821,4.726483337,1.629358217,6.030850332
13.86395625,4.846044863,6.069175374,4.053891861,8.760883503
13.87395025,5.77111648,7.240020082,5.078711421,10.56016032
13.88394425,6.573174373,7.184461008,5.971118152,11.4226684
13.89393725,6.676106418,6.081640468,5.744710454,10.70319793
13.90393125,5.904292663,4.320902917,4.091179848,8.382638393
13.91392525,4.598514683,2.150044584,1.901437347,5.420746534
13.92391925,3.203515501,0.549364622,0.515826162,3.29095574
13.93391225,1.768383662,-0.577458739,-0.079876036,1.861993435
13.94390625,0.193234397,-1.193093364,-0.515495941,1.313981496
13.95390025,-0.979216833,-1.660702216,-0.733395794,2.062684379
13.96389325,-1.901857469,-2.09394055,-1.020066213,3.007022437
13.97388725,-2.660215904,-2.589185683,-0.898401296,3.819392104
13.98388125,-3.278525046,-3.074228593,-0.896860555,4.583008485
13.99387525,-3.681163146,-3.653529789,-1.116801817,5.305326411
14.00386825,-3.994963914,-4.305673259,-1.156262191,5.986276067
14.01386225,-4.195082531,-5.284230527,-1.258671641,6.863385754
14.02385625,-4.36275641,-6.77128681,-1.925903851,8.282093588
14.03384925,-3.997538443,-7.91876546,-1.655714395,9.023776935
14.04384325,-3.44429127,-8.215541475,-0.965215091,8.960463395
14.05383725,-3.012812656,-7.957077586,-0.621935658,8.531056662
14.06383125,-2.385901968,-6.929592572,0.029941252,7.328893361
14.07382425,-1.718799566,-5.857550021,1.121976019,6.206770045
14.08381825,-0.554382702,-5.314087579,1.077547047,5.450502235
14.09381225,1.428093545,-5.02190923,0.896161813,5.297370053
14.10380525,2.349624088,-5.842263061,1.162355136,6.403424122
14.11379954,1.763932469,-6.972273738,0.324873641,7.199277861
14.12379354,0.285452297,-7.187609149,-1.846795117,7.426564515
14.13378754,-2.162529851,-5.955616014,-3.145349447,7.073833516
14.14378054,-5.444646549,-4.591802664,-1.852163592,7.359302802
14.15377454,-8.287359316,-3.160723531,1.046296676,8.931138472
14.16376854,-9.697517112,-2.154678503,1.264734035,10.01419142
14.17376254,-8.627707613,-1.012947666,-3.607933202,9.406411836
14.18375554,-6.08511196,2.904511405,-6.861310542,9.619893784
14.19374954,-3.997044646,7.966748296,-9.118812917,12.75139966
14.20374354,0.425049601,11.26719046,-9.206117109,14.55619594
14.21373654,4.124800461,9.963766569,-0.707523765,10.80699833
14.22373054,1.869096397,5.053301176,5.448670603,7.662727025
14.23372454,-0.171936207,1.760350465,2.458687524,3.028785261
14.24371854,0.673566499,3.419387394,-0.859140167,3.58943224
14.25371154,2.133126251,7.059859182,-1.766354971,7.583656714
14.26370554,4.637213895,9.557724804,-0.720770413,10.647693
14.27369954,7.26131915,10.17358221,1.073211994,12.54513112
14.28369254,8.215326297,8.91864109,1.723533472,12.24762478
14.29368654,6.506468752,7.354110369,1.982853978,10.01742406
14.30368054,4.746148108,6.604865697,1.501009494,8.270622845
14.31367454,4.013535841,6.256078699,0.41345311,7.444322273
14.32366754,3.581290948,5.823268965,-1.290493358,6.957117177
14.33366154,3.153513329,5.218644063,-1.990465883,6.41411308
14.34365554,2.833513927,4.428055483,-1.136087104,5.378398502
14.35364854,2.468628667,3.616876518,0.143411168,4.38137992
14.36364254,2.096338493,2.733642315,1.163876581,3.636212876
14.37363654,1.863458512,1.616419498,1.615466402,2.948732153
14.38363054,1.526639302,0.445757223,0.99239061,1.874610942
14.39362354,1.112485988,-0.781555216,0.313264579,1.395201894
14.40361754,0.884627595,-1.866418372,0.169582045,2.07239996
14.41361154,0.281452802,-2.879260789,-0.3682401,2.916326309
14.42360554,-0.269522435,-3.852120529,0.17349851,3.865433565
14.43359854,-0.476120937,-4.678823267,1.671377478,4.991150266
14.44359254,-0.720637462,-5.534298398,2.6876411,6.194448466
14.45358654,-0.839787345,-6.038934159,2.952040497,6.774105968
14.46357954,-0.747016883,-6.490247991,2.682155242,7.06224539
14.47357354,-0.635563105,-7.173430821,2.562904787,7.6439866
14.48356754,-0.581773107,-7.738489369,2.428912332,8.131561522
14.49356154,-0.661513048,-8.198933628,2.185741836,8.511026937
14.50355454,-0.625112962,-8.386795312,1.897848472,8.621538763
14.51354854,-0.230902745,-8.407654669,1.943526775,8.632454427
14.52354254,0.307051035,-8.422785509,2.091183003,8.683930125
14.53353554,0.410849345,-8.385929924,1.871892536,8.602127617
14.54352954,0.244577629,-7.981704304,2.367618309,8.329047861
14.55352354,-0.12193842,-7.065587114,2.904664017,7.640318272
14.56351754,-0.35460147,-5.488535165,3.079691062,6.303511521
14.57351054,-0.177429374,-3.983470627,2.672219653,4.800028885
14.58350454,0.109735281,-2.82678846,1.166002629,3.059793614
14.59349854,0.479789187,-1.861580971,-0.688963387,2.042143953
14.60349254,0.839342079,-1.023843952,-1.937190732,2.34637156
14.61348554,0.784310132,0.025502046,-2.222654139,2.357113523
14.62347954,0.278203504,1.592366391,-1.575885429,2.257530244
14.63347354,0.276561898,3.31479357,0.647424109,3.388731455
14.64346654,0.631203714,5.84204379,2.119251977,6.246528854
14.65346054,-0.004733029,7.886731489,1.767032079,8.082261957
14.66345454,-1.070679273,9.634537922,-1.061359834,9.751777262
14.67344854,-1.280002576,10.85482493,-3.149296317,11.37469552
14.68344154,-0.758378315,10.60709478,-1.823580063,10.78939486
14.69343554,-0.110745095,8.541764653,-0.798818536,8.579750516
14.70342954,1.506866065,7.319575544,0.439201909,7.485968862
14.71342254,3.350326807,7.377077063,-1.059609909,8.171213427
14.72341654,4.20539088,6.219790294,-1.406339857,7.638644876
14.73341054,4.333109565,4.668059127,-1.81993447,6.624105675
14.74340454,4.750019257,4.401200976,1.084203298,6.56572538
14.75339754,5.234895814,4.628610887,2.984921437,7.598547816
14.76339154,6.341939213,5.012827334,5.430013892,9.73825866
14.77338554,7.431456753,5.369005798,6.286573682,11.11637447
14.78337954,6.978153698,4.223440357,5.352777436,9.756244348
14.79337254,5.501668596,2.756494403,3.684542544,7.172340796
14.80336654,4.190766409,1.453171669,1.819095394,4.794094184
14.81336054,2.649904047,-0.028309879,1.647679882,3.120519492
14.82335354,1.555741771,-0.632142484,0.875605926,1.893837986
14.83334754,0.269122778,-1.101071638,-0.266911069,1.164485869
14.84334154,-1.169914416,-1.585712845,-1.75862963,2.641204865
14.85333554,-2.391650658,-2.104371398,-2.187655191,3.864480183
14.86332854,-3.537330412,-2.774575163,-2.194893898,5.002852486
14.87332254,-4.48688812,-3.49407271,-2.165038015,6.085071792
14.88331654,-5.225927355,-4.722477409,-2.380282209,7.434907733
14.89331054,-5.907287607,-6.201090313,-3.200883085,9.143042189
14.90330354,-6.132818223,-7.060301231,-3.647579663,10.0381348
14.91329754,-5.877358634,-7.35211413,-3.213573005,9.946053395
14.92329154,-6.028751818,-8.191681911,-3.297984579,10.69234321
14.93328454,-6.501827817,-8.753279493,-4.004622345,11.61596604
14.94327854,-6.16756004,-7.584515809,-2.82920336,10.17683981
14.95327254,-4.772221427,-5.180285743,-0.133827637,7.044669444
14.96326654,-2.810406024,-2.777820953,2.223737043,4.534278079
14.97325954,-0.79801162,-2.520853366,1.999407445,3.314989347
14.98325354,1.931291476,-4.205089456,1.261714532,4.796309796
14.99324754,3.084297498,-6.638912864,1.76155733,7.529351852
15.00324154,2.016421089,-7.818534243,1.395163196,8.194016845
15.01323454,-0.192315215,-7.770592337,0.221884292,7.776138055
15.02322854,-3.459320076,-7.129659149,-1.209667296,8.016372617
15.03322254,-7.080643694,-6.291880615,-1.78952047,9.639795657
15.04321554,-9.960329576,-5.036650645,-1.325879538,11.23983859
15.05320954,-11.08590923,-4.242602268,0.076672127,11.87025426
15.06320354,-8.838478103,-3.452132971,-2.337148322,9.772316998
15.07319754,-4.398484944,-0.399618598,-5.577100017,7.114099341
15.08319054,-1.281351237,5.083693249,-8.027035428,9.587444697
15.09318454,2.629413064,10.19071455,-10.88869317,15.1435833
15.10317854,9.055486987,13.44468071,-9.588570621,18.83353314
15.11317154,10.50067077,10.73255264,2.316676051,15.19272065
15.123165,6.969377028,2.561862813,8.044712146,10.94772811
15.133159,3.560935914,0.594508635,4.184778568,5.526850528
15.143153,1.589640419,3.689644532,0.871876645,4.111034216
15.153146,2.073236437,7.287721667,-0.803632548,7.619384601
15.16314,3.871360792,9.91344777,-0.293972312,10.64660983
15.173134,4.852607778,10.92265497,0.340698508,11.95693394
15.183128,4.263174819,9.794106098,0.930850419,10.72220389
15.193121,2.792618501,8.140704716,0.359748774,8.613896362
15.203115,2.387211159,7.449532835,-0.567802062,7.843259257
15.213109,2.428867601,7.546962651,-1.592316105,8.086501942
15.223102,2.338238097,7.192024382,-1.84597943,7.784613809
15.233096,2.161013376,6.494915823,-1.008670428,6.918910781
15.24309,2.212289949,5.523855856,-0.038114491,5.950517881
15.253084,2.503603495,4.306574315,0.884088482,5.059271216
15.263077,2.594966825,2.985720459,1.406376987,4.198365838
15.273071,2.588806491,1.750212563,1.171756289,3.337390577
15.283065,1.945317777,0.343636186,0.923485851,2.180635962
15.293059,1.017173449,-0.921898917,0.792489436,1.585111651
15.303052,0.023409913,-2.196204844,-0.504108415,2.253439379
15.313046,-0.306707803,-3.285293198,-0.041450985,3.299839277
15.32304,-0.186051385,-3.857078383,2.900885546,4.829783196
15.333033,-0.557073298,-4.815349905,4.155620842,6.384912681
15.343027,-0.693853998,-5.851007572,4.08420295,7.16913082
15.353021,-0.906105295,-6.618780316,3.572510769,7.575758238
15.363015,-0.967647532,-6.746903336,3.585191041,7.701340219
15.373008,-1.255319433,-7.009816371,3.328252691,7.860700885
15.383002,-1.860739557,-7.545269297,2.438291266,8.144857566
15.392996,-1.948984858,-7.784420418,1.92562377,8.25250084
15.40299,-2.043446919,-8.49611661,1.991242393,8.962405873
15.412983,-2.404854548,-9.475811745,2.266286062,10.03545645
15.422977,-2.914642875,-10.08235863,2.603802552,10.8133661
15.432971,-3.063118883,-9.941319108,2.603507853,10.72337522
15.442964,-2.701974964,-9.165708171,1.817508752,9.726983759
15.452958,-2.351050516,-8.456296486,0.58800072,8.796711524
15.462952,-2.222044859,-7.718753847,-0.33328201,8.039136844
15.472946,-2.04391879,-6.779921393,-0.853627996,7.132574491
15.482939,-1.819362904,-5.912968762,-0.863045522,6.246449274
15.492933,-1.672139077,-4.9325322,-0.263391337,5.21491112
15.502927,-1.259196721,-3.077100745,0.125537381,3.327143672
15.512921,-0.846436214,-1.005945041,0.153739617,1.323637246
15.522914,0.136414664,1.452830191,0.876001782,1.701970519
15.532908,1.848464497,5.01810854,1.234833713,5.48844683
15.542902,3.417429162,9.143456592,1.437911021,9.866570257
15.552895,2.740472447,12.33030431,-0.275782903,12.63418576
15.562889,1.619126174,15.16235176,-3.414383347,15.62614777
15.572883,0.742929679,14.91166525,-2.074689323,15.0736207
15.582877,0.056746643,10.50219105,1.787747448,10.65341626
15.59287,0.481038153,8.537724811,0.443246867,8.562745497
15.602864,0.104240068,7.616966686,-1.500793293,7.76411154
15.612858,0.837725909,6.856428117,0.433188633,6.92098574
15.622852,1.451719805,6.571293324,1.178403404,6.832131506
15.632845,1.567103496,6.507868575,2.257428554,7.064286973
15.642839,2.226289353,6.573436328,4.282964428,8.155379435
15.652833,3.489150524,6.73529135,3.475921491,8.343881061
15.662827,4.688526721,6.535870306,3.59645044,8.811035083
15.67282,5.061398985,6.10372891,3.253664146,8.570857406
15.682814,4.934587496,5.291978672,3.120238871,7.879789504
15.692808,4.231665051,4.180835205,2.921858047,6.627490216
15.702801,3.165663843,2.984890739,2.044445916,4.80736512
15.712795,1.796539468,2.008806844,1.209484863,2.953931724
15.722789,-0.186060741,1.083562735,0.018993218,1.099585169
15.732783,-1.812998795,0.472564952,-1.183853009,2.216255899
15.742776,-3.086124753,0.065839648,-1.447426779,3.409332066
15.75277,-4.273344004,-0.419906098,-1.353136919,4.502085031
15.762764,-5.178463166,-1.159765404,-1.182106153,5.436810785
15.772758,-5.936929482,-2.131891903,-1.113713464,6.405657846
15.782751,-6.127494333,-3.056556553,-1.526277798,7.015571872
15.792745,-5.915432194,-3.858032064,-2.099066366,7.367688176
15.802739,-5.774896705,-4.511761299,-2.28446871,7.676211256
15.812732,-5.653490966,-5.148694407,-1.935077548,7.887682759
15.822726,-5.736464126,-5.608848059,-2.018963166,8.272992776
15.83272,-5.981344348,-5.913771585,-2.162466409,8.684781836
15.842714,-6.311935396,-6.481504065,-2.337805111,9.344290027
15.852707,-6.512196684,-7.003829992,-2.885375807,9.98938105
15.862701,-6.003938574,-6.731568428,-3.024249517,9.513536516
15.872695,-3.638078814,-5.088245891,-1.972207952,6.558617836
15.882689,-0.886756274,-3.577419507,-0.808517897,3.773323231
15.892682,0.481287829,-3.420054561,0.447284516,3.482595959
15.902676,1.459417372,-3.612429711,1.590077206,4.208074738
15.91267,2.272204029,-3.621906878,1.428258437,4.507886727
15.922664,1.968131273,-4.03365494,1.778290308,4.827652567
15.932657,0.105690762,-5.10742125,2.354027626,5.624799412
15.942651,-2.107239457,-5.746714295,1.822400387,6.386417343
15.952645,-3.936201736,-5.229574263,1.33874809,6.680896461
15.962638,-5.500743567,-3.268911638,2.142971207,6.748058142
15.972632,-6.984790873,-1.444496155,0.982694684,7.19996955
15.982626,-6.568441052,-0.03047218,-1.60708091,6.762252247
15.99262,-3.733413865,2.396814042,-3.597198299,5.711648819
16.002613,0.203600634,5.364063147,-5.533817173,7.70958878
16.012607,5.406473002,7.660133171,-8.979322325,12.98213464
16.022601,8.44500142,7.789390551,-7.423112776,13.67827684
16.032595,7.717321279,6.174047526,0.545742747,9.898168806
16.042588,5.275116472,5.02679107,7.093555516,10.16926802
16.052582,3.320446073,4.203366866,7.217997129,8.988500303
16.062576,2.653254209,5.154011865,7.348972421,9.36007435
16.072569,1.328441788,5.029334024,3.295757375,6.158000892
16.082563,1.160692188,4.456132643,-1.792910686,4.941543606
16.092557,2.303000144,4.24964407,-3.199819769,5.796734506
16.102551,3.42462533,4.603565508,-2.457020482,6.241620278
16.112544,4.04642292,5.513066574,-0.79274094,6.884466551
16.12253779,4.337789676,6.292224432,-0.158162506,7.644182294
16.13253179,4.422834504,6.355051594,-0.42756712,7.754415482
16.14252579,4.609101652,5.760139502,-0.043045996,7.377321877
16.15251879,4.78601267,4.887397542,1.085489978,6.926099949
16.16251279,4.419054279,3.909433767,1.974450359,6.221749539
16.17250679,3.225260127,2.935893996,2.946755784,5.26356781
16.18250079,2.11447451,2.451479076,3.573846273,4.822149863
16.19249379,0.862416362,1.896426868,2.926037929,3.591920769
16.20248779,-0.110752112,1.268196756,2.542832465,2.843692316
16.21248179,-0.845180816,0.58231719,1.564823813,1.871389187
16.22247579,-1.654911718,-0.574036363,1.125390354,2.082007202
16.23246879,-1.690873264,-1.606868656,1.505911946,2.776481597
16.24246279,-1.297386641,-2.608076867,2.342197978,3.737802617
16.25245679,-0.840738687,-3.8875032,3.172127648,5.087427295
16.26244979,-0.283017517,-5.060221356,3.810699438,6.34092811
16.27244379,0.077658625,-5.72896741,4.15724169,7.078824544
16.28243779,0.172539347,-6.47712567,4.068723031,7.650976008
16.29243179,0.484377497,-6.924691436,3.697795551,7.865091543
16.30242479,0.813249464,-7.321959454,3.625874798,8.210933746
16.31241879,0.471603962,-7.723298888,4.0397454,8.728762736
16.32241279,-0.456233387,-8.302326434,4.927983066,9.665494825
16.33240679,-1.230958763,-8.459275643,5.300606239,10.0583811
16.34239979,-1.016422959,-7.794790455,5.258797477,9.457633148
16.35239379,-0.564269467,-6.858394536,4.745073974,8.358929516
16.36238779,-0.882386065,-6.068194211,3.973126903,7.306662955
16.37238079,-1.518231591,-5.330625844,2.69064423,6.161182145
16.38237479,-2.469456633,-5.026533793,1.014052351,5.691446231
16.39236879,-3.176291742,-4.624064677,0.404108237,5.624420578
16.40236279,-3.585570526,-3.659519092,0.365240479,5.136321309
16.41235579,-3.466913271,-2.128577701,0.255099913,4.076200022
16.42234979,-2.898844868,-0.708155118,0.432253078,3.015232655
16.43234379,-2.117712113,0.742986397,0.871836226,2.407661061
16.44233779,-1.495432127,2.63103479,0.353999791,3.046961956
16.45233079,-0.133606539,5.964281003,-1.019019853,6.052181429
16.46232479,1.296243803,10.02920276,-1.905729203,10.29062485
16.47231879,0.87599535,12.96737483,-3.584465402,13.48215747
16.48231279,-0.270141363,15.2260677,-6.426315705,16.52887314
16.49230579,-1.650732713,14.80668902,-7.075423885,16.49316772
16.50229979,-1.504369304,13.217638,-4.167168508,13.94038646
16.51229379,-0.517314863,12.76382741,-2.622860382,13.04079374
16.52228779,1.160527296,11.98808315,0.909024518,12.07838097
16.53228079,2.732340724,10.68782962,3.146560405,11.47154001
16.54227479,4.138905991,9.023406823,1.760230013,10.08220329
16.55226879,5.02705361,6.797888718,1.934982823,8.673333704
16.56226179,4.512149554,4.759670963,1.392013886,6.704600207
16.57225579,5.677113717,4.646027988,2.308964012,7.69067689
16.58224979,6.630257816,4.320743288,4.108745176,8.916890051
16.59224379,6.279943525,3.409527819,5.130840518,8.797050361
16.60223679,4.620099095,1.940790862,2.620215394,5.654866358
16.61223079,2.581356845,0.517434731,1.754607038,3.163824856
16.62222479,0.787508267,-0.207428806,0.914449857,1.224505827
16.63221879,-0.674427794,-0.947872834,0.34606892,1.213704847
16.64221179,-1.807621111,-1.749408571,-0.473927354,2.559791312
16.65220579,-2.855446833,-2.555250782,-1.101164609,3.986909413
16.66219979,-3.990600722,-3.809086776,-1.895473479,5.833254314
16.67219379,-4.928668944,-5.034464956,-2.189367402,7.377733024
16.68218679,-5.992096208,-6.367593872,-2.606457188,9.123874602
16.69218079,-7.278935056,-7.749715438,-3.178210214,11.09693674
16.70217479,-8.882680714,-9.359273813,-3.901564584,13.48036458
16.71216779,-9.764067197,-10.24491356,-3.404623175,14.55632924
16.72216179,-9.484447498,-10.02143064,-3.666452721,14.27678857
16.73215579,-8.667679764,-9.736191766,-4.991632347,13.95845608
16.74214979,-6.413223789,-8.131229888,-3.817647684,11.0372448
16.75214279,-2.947693969,-5.211359017,-1.61132248,6.20028408
16.76213679,-0.827072867,-4.246864303,0.688116637,4.381028469
16.77213079,0.864478382,-4.251853148,3.10162046,5.333444247
16.78212479,2.966510602,-3.613365265,3.61611755,5.910406062
16.79211779,4.320480164,-3.242921349,3.941146141,6.686981429
16.80211179,3.391351749,-3.573200741,4.439587947,6.631664298
16.81210579,0.572917791,-4.578479199,4.333396663,6.330010522
16.82209979,-2.123775968,-5.033421228,2.948607597,6.20806253
16.83209279,-4.729179488,-4.209122865,2.10575251,6.672034739
16.84208679,-7.816910471,-2.812031842,3.553702615,9.035508545
16.85208079,-10.6115679,-2.789845752,3.734661661,11.59035419
16.86207479,-10.27437183,-2.207700469,-1.987516547,10.69518022
16.87206779,-6.131266372,0.684637617,-8.825870921,10.76834033
16.88206179,-1.925789831,3.473223878,-11.70859794,12.36378649
16.89205579,2.996588094,5.894643003,-14.70194785,16.12059635
16.90204979,8.366425951,9.034173886,-13.91018573,18.57704627
16.91204279,9.494422263,10.48982536,-6.811771177,15.7028888
16.92203679,6.915511308,8.032251145,-0.489613094,10.61042299
16.93203079,5.044488253,6.110640319,7.437182347,10.86731191
16.94202379,3.697803737,8.060580904,14.9884579,17.41552719
16.95201779,0.325087649,7.220972192,9.800505291,12.17776767
16.96201179,-1.723087329,5.20768755,-2.865267232,6.188602094
16.97200579,-1.660664794,5.799757896,-6.566688057,8.917196378
16.98199879,-1.333356373,6.148771766,-3.578922241,7.238364308
16.99199279,-0.125171345,6.21539845,-1.52894749,6.401915821
17.00198679,1.617816398,6.694219338,-0.810517645,6.934467629
17.01198079,3.260958256,7.715456602,-0.902074517,8.424717073
17.02197379,4.388685011,8.260508902,-1.045865151,9.4122472
17.03196779,5.024803017,7.970668854,-0.486898817,9.434896809
17.04196179,5.428167341,7.339915084,-0.265340836,9.132894387
17.05195579,5.337776404,6.253530482,0.210318573,8.22452031
17.06194879,4.95090649,4.707243658,1.429962316,6.979570915
17.07194279,4.708084488,3.152906973,2.773348417,6.30859282
17.08193679,4.488494935,1.876873779,3.669506721,6.093810101
17.09193079,3.362544564,1.160638978,3.324607537,4.868963345
17.10192379,2.017491129,0.283798705,3.938217856,4.434001809
17.11191779,1.215348451,-0.677901624,3.725024865,3.976484969
17.12191212,0.307031447,-1.848147578,2.759127989,3.335071969
17.13190512,-0.158142333,-3.59603061,2.980757343,4.673474027
17.14189912,-0.253017792,-4.630448667,3.671796491,5.914994703
17.15189312,-0.779656918,-5.751692029,4.02078171,7.060914365
17.16188712,-1.239996512,-6.793293976,3.486374559,7.735712117
17.17188012,-1.451823885,-7.519969565,3.162045586,8.285907744
17.18187412,-1.326563662,-7.993688757,2.913289829,8.610812315
17.19186812,-1.224285628,-8.52984218,2.862879814,9.080372445
17.20186212,-1.323052409,-9.392730997,3.263623416,10.03120636
17.21185512,-1.370704878,-10.43431774,3.650493915,11.13911686
17.22184912,-1.341691871,-11.14349027,3.606290134,11.7890984
17.23184312,-1.318351248,-11.32028786,3.410251704,11.89608271
17.24183712,-1.321222816,-10.45488006,3.264610426,11.03212708
17.25183012,-1.296417173,-8.959709594,2.737276944,9.457789307
17.26182412,-1.542889884,-7.696572434,1.977493104,8.094949994
17.27181812,-1.986280154,-6.969551275,1.589460325,7.419321933
17.28181212,-2.223705176,-6.120657769,1.191588875,6.620211498
17.29180512,-2.030691218,-4.777372239,0.42478147,5.208400103
17.30179912,-1.537721822,-3.026194301,0.019377664,3.394527338
17.31179312,-0.796758269,-1.307245046,0.216393757,1.546136996
17.32178712,0.014458995,0.430839221,0.253921699,0.500307632
17.33178012,0.83302007,2.558412956,0.396687974,2.71969863
17.34177412,1.958886825,5.348935815,0.157121701,5.698512014
17.35176812,1.343423816,7.525796315,-0.880478557,7.695299878
17.36176212,-1.100299805,9.315782223,-1.908126562,9.572638355
17.37175512,-2.940262158,10.98854841,-3.90638269,12.02718436
17.38174912,-3.601461504,10.68521358,-5.751225421,12.65783978
17.39174312,-2.362708987,9.017378343,-5.179596941,10.6641329
17.40173712,-0.354790335,8.939234399,-4.269482503,9.912833534
17.41173012,1.368488199,8.77658474,-2.97113458,9.366367511
17.42172412,3.383624654,8.579775648,-0.794008909,9.256992822
17.43171812,5.716254394,8.696967298,4.762993644,11.44547565
17.44171112,6.704472431,8.431646379,6.275511335,12.46694244
17.45170512,7.053038989,7.791401408,2.804084599,10.87723243
17.46169912,7.182412144,7.732298922,2.590946572,10.86685304
17.47169312,6.715026655,7.300379135,4.053491619,10.71531207
17.48168612,6.744887801,6.515077608,4.014857604,10.20092296
17.49168012,6.712082582,5.546102173,4.329943005,9.724181628
17.50167412,5.48087122,4.498033791,3.365731589,7.848592641
17.51166812,3.291838571,3.305097717,1.679586968,4.957911302
17.52166112,1.252529726,1.760516526,1.263364617,2.502866219
17.53165512,-0.136279886,0.166721075,0.483743075,0.529504945
17.54164912,-1.188863488,-1.343913521,-0.191359488,1.804471778
17.55164312,-1.961454923,-2.599972626,-0.907435537,3.380917379
17.56163612,-2.954839559,-3.707815924,-1.737385526,5.049503363
17.57163012,-4.003799934,-4.360664569,-2.568888535,6.453293554
17.58162412,-5.104014078,-5.181066931,-3.271808349,7.974907155
17.59161812,-6.008394737,-6.065930169,-3.408245525,9.193065522
17.60161112,-6.944687744,-6.797966486,-3.77379649,10.42509358
17.61160512,-8.123312758,-7.711529612,-3.543169149,11.74776348
17.62159912,-8.967841902,-8.387279461,-3.393612868,12.73912295
17.63159312,-9.468126165,-8.966419274,-3.449657845,13.48859618
17.64158612,-9.414479715,-9.26195451,-3.543185813,13.67371184
17.65158012,-7.385752577,-8.080248014,-3.595290352,11.52240695
17.66157412,-3.378876715,-5.683132841,-2.381582045,7.027569977
17.67156812,-0.421939759,-4.093498853,-1.081354827,4.254890631
17.68156112,1.371611781,-3.258250995,1.00479197,3.67520412
17.69155512,2.734209787,-3.112622581,2.623093686,4.903564313
17.70154912,3.794204443,-3.191876326,3.695424505,6.183868054
17.71154312,3.60785368,-4.731378626,4.962569346,7.747880122
17.72153612,2.103464495,-6.961659873,5.067737367,8.864041577
17.73153012,0.553103916,-8.735738431,3.90142776,9.583328672
17.74152412,-1.665463604,-9.946602652,-0.317543571,10.09006973
17.75151712,-3.528336809,-8.07849385,-2.247388446,9.097361065
17.76151112,-7.519070848,-4.659818646,0.451505474,8.857437181
17.77150512,-12.52558962,-2.87706399,1.583317825,12.94892999
17.78149912,-12.72882246,-0.520851844,-1.784550337,12.86385743
17.79149212,-6.019968131,5.472406206,-3.276142305,8.770424983
17.80148612,1.10021736,11.28723238,-10.77759842,15.64508615
17.81148012,9.909466985,14.78374338,-15.59286587,23.66208085
17.82147412,13.60169599,13.47863432,-11.00425637,22.08559203
17.83146712,10.82068187,9.051573445,-3.311659462,14.490867
17.84146112,7.029855949,6.837836895,0.78649202,9.838366621
17.85145512,4.317284076,7.196871724,8.816535257,12.17231278
17.86144912,2.852860025,7.920275211,13.90185579,16.2521126
17.87144212,1.925080563,7.517745284,1.404015881,7.886297605
17.88143612,0.459351414,8.057600579,-10.98776255,13.63329955
17.89143012,-0.158074797,8.691349878,-8.150221059,11.91598312
17.90142412,0.930752771,9.989803051,-2.628298293,10.37161596
17.91141712,1.625887894,10.34122188,-0.97718668,10.51376599
17.92141112,2.241119061,9.483963348,-0.513360391,9.7586738
17.93140512,3.143745555,9.226513367,-1.570684916,9.873132032
17.94139912,2.379253099,8.26191048,-2.745295231,9.025334121
17.95139212,1.181357125,7.184536437,-3.274478772,7.983444101
17.96138612,0.649616888,6.281619921,-3.574141558,7.256392962
17.97138012,1.211982209,4.968753362,-1.52545144,5.337079065
17.98137412,2.333926945,3.708090743,0.578735734,4.419512077
17.99136712,3.081382077,2.081421661,1.704853372,4.090691464
18.00136112,3.141065192,0.401747569,1.517568809,3.511510606
18.01135512,2.691944066,-1.004512473,1.971233221,3.484446667
18.02134912,2.364057355,-2.114022228,2.819455467,4.243487514
18.03134212,1.84026173,-3.453930405,2.991761218,4.926137804
18.04133612,0.972022711,-5.058582382,3.17541466,6.051226498
18.05133012,0.02798302,-6.749316482,3.467926885,7.588186404
18.06132412,-0.874623009,-8.318658877,3.266518958,8.979710297
18.07131712,-1.425833889,-9.304676607,2.548253419,9.752107696
18.08131112,-1.819110889,-10.37229398,1.555700256,10.64489785
18.09130512,-2.44375929,-11.77441186,1.029747886,12.06934608
18.10129912,-3.07229258,-12.97085509,1.099768293,13.37503472
18.11129212,-3.16226778,-13.58527584,0.728686447,13.96748513
18.12128637,-2.803645765,-13.29560477,0.257440023,13.59043087
18.13128037,-1.996237085,-12.13153874,0.008345694,12.2946844
18.14127437,-1.428946947,-10.58947127,-0.680604792,10.7071011
18.15126737,-1.375365401,-9.381743494,-1.547231149,9.607427606
18.16126137,-1.802615602,-9.022015185,-1.511685925,9.32369966
18.17125537,-2.149910975,-8.49384789,-1.080560775,8.828090437
18.18124937,-2.322609659,-7.784350836,-0.885106555,8.17153885
18.19124237,-2.575319888,-7.392137736,-0.730009087,7.861862763
18.20123637,-2.9314697,-6.745274302,-0.703358647,7.38829841
18.21123037,-3.027045656,-5.298700631,-0.69403994,6.141736336
18.22122437,-3.349051822,-3.284695027,-0.352360305,4.704203154
18.23121737,-4.69777,-0.391589786,-0.535929474,4.744428936
18.24121137,-6.257658616,3.560178407,-1.782962379,7.417015336
18.25120537,-5.394524801,7.755597737,-1.007760455,9.500830239
18.26119937,-1.817698787,11.84745996,0.058365152,11.98623138
18.27119237,3.64341703,16.15052886,1.451054684,16.6198565
18.28118637,6.147754351,19.29560817,0.940541595,20.27313485
18.29118037,5.911291196,17.57599584,0.234742612,18.54492107
18.30117437,5.98043569,14.10303275,6.108624784,16.49170823
18.31116737,5.612889655,13.76879187,6.183915871,16.10357027
18.32116137,5.055231927,11.10371868,6.048586743,13.61739109
18.33115537,6.728184645,10.23198186,7.307099925,14.26028158
18.34114837,7.167545013,10.09333736,8.485651263,15.00851218
18.35114237,6.762051133,8.732276294,9.022086521,14.26099681
18.36113637,6.815463694,7.286568012,6.943134724,12.1553173
18.37113037,6.152116958,5.704122006,4.106052825,9.340515015
18.38112337,4.82046388,4.586652437,2.020346617,6.95385167
18.39111737,2.861802172,3.375226298,0.420629398,4.445108922
18.40111137,1.400771553,2.262174885,-0.195119978,2.667895792
18.41110537,0.471510115,1.353435711,-0.512727284,1.522169268
18.42109837,-0.89404015,0.107499306,-1.057549789,1.388983602
18.43109237,-1.95629914,-0.836863444,-1.666523119,2.702729372
18.44108637,-2.62204528,-1.546065799,-2.113909376,3.705948429
18.45108037,-3.240255311,-2.29166824,-3.236256693,5.120972094
18.46107337,-3.684558624,-3.557819055,-3.987576542,6.491133596
18.47106737,-3.983658323,-5.338952864,-4.837074065,8.232328761
18.48106137,-3.780647088,-7.172894046,-5.017370036,9.535077529
18.49105537,-3.823209556,-8.758487608,-4.71974676,10.65851988
18.50104837,-4.551666207,-10.12004276,-4.353066112,11.91982027
18.51104237,-5.781332735,-11.37818582,-4.182801624,13.43066454
18.52103637,-7.00652205,-12.18644644,-5.224123489,14.99640938
18.53103037,-7.734892162,-12.49905028,-5.775051071,15.79259413
18.54102338,-8.007736108,-12.43141437,-5.308738546,15.71135276
18.55101737,-7.928174214,-11.70136961,-5.169450853,15.04995745
18.56101137,-7.577547097,-10.18610461,-4.888043659,13.60400374
18.57100537,-7.26136125,-8.716679431,-3.71731648,11.93843831
18.58099837,-7.251286497,-7.70192673,-2.581412979,10.88873382
18.59099237,-7.047651365,-7.034184642,-1.323118044,10.04488849
18.60098637,-6.329794546,-6.773149733,-0.25473987,9.273982354
18.61098037,-5.202537907,-6.475617673,0.101471338,8.307245112
18.62097337,-4.033321356,-5.457626783,-0.422533836,6.799404835
18.63096737,-3.32400235,-3.596945699,-0.833134163,4.968009915
18.64096137,-3.022588031,-1.718331204,-0.235169751,3.484825009
18.65095537,-3.007625006,0.556095352,0.525428606,3.103405458
18.66094837,-3.391895248,3.234662157,0.382127164,4.702553967
18.67094237,-3.368947265,6.783584089,0.014265013,7.574102076
18.68093637,-2.008360117,9.939734513,1.428436777,10.240716
18.69093037,2.370518821,13.5872253,2.899061215,14.09384996
18.70092337,9.789448791,19.93414049,1.899207804,22.28924079
18.71091737,13.55295243,22.26603582,1.32277569,26.0999733
18.72091137,9.295876547,16.09606322,5.624073039,19.41975205
18.73090537,8.207356542,13.73297884,7.752443749,17.77795808
18.74089837,8.06455935,13.28946052,4.758714359,16.25706741
18.75089237,6.798722531,11.94680883,5.059990391,14.64760636
18.76088637,5.522433228,10.21647387,5.926137861,13.03812552
18.77088037,4.003311692,9.033108523,4.509051114,10.86071342
18.78087337,3.201014647,8.647044355,2.514921366,9.557337513
18.79086737,2.011594797,7.689789664,1.714403045,8.131331779
18.80086137,0.831960554,6.280284417,0.727474903,6.37678214
18.81085537,-0.009592942,4.639022439,0.579081341,4.675035445
18.82084837,-0.997882607,2.496896739,0.032775544,2.689114587
18.83084237,-0.683067055,0.576638959,0.265333198,0.932467048
18.84083637,0.670990216,-0.89399425,0.540599645,1.241652755
18.85083037,1.158347454,-2.211933269,0.381542443,2.525864653
18.86082337,1.355020891,-3.131980957,-0.068371493,3.413218568
18.87081737,1.440336738,-4.159153145,-0.957650401,4.504466571
18.88081137,1.535813291,-5.192192429,-1.770877792,5.696805494
18.89080537,1.30865101,-6.196727121,-2.399906634,6.772853633
18.90079837,0.496744066,-7.418244385,-3.355754485,8.157094616
18.91079237,-0.217113841,-8.143133065,-3.844750113,9.007766536
18.92078637,-0.983936121,-8.767375376,-3.341003129,9.4338382
18.93078037,-1.77330731,-9.76194115,-3.038338383,10.37649334
18.94077337,-2.390647568,-10.71891459,-3.379890622,11.49060427
18.95076737,-2.964209138,-11.45174379,-4.191206996,12.54970867
18.96076137,-3.670485545,-12.23023156,-4.288296504,13.46998571
18.97075537,-4.655606312,-12.80190564,-4.104752989,14.22717313
18.98074837,-5.375106783,-13.1333422,-3.87883061,14.71128061
18.99074237,-5.64542941,-13.15074702,-3.862206976,14.82328112
19.00073637,-5.695434213,-12.82498343,-3.508473818,14.46470046
19.01073037,-5.709045362,-12.18653531,-2.795567837,13.74481871
19.02072337,-5.82884604,-11.2399132,-1.738534504,12.78020333
19.03071737,-6.082183675,-9.916297703,-0.951850694,11.67184382
19.04071137,-6.490447966,-8.585449786,-0.450857749,10.77214628
19.05070537,-6.778716867,-7.263243468,0.00995715,9.935079627
19.06069837,-6.523164892,-5.638791651,0.427309257,8.6330901
19.07069237,-5.413466856,-3.509311724,0.909451876,6.515212575
19.08068637,-2.978875124,-0.881711589,1.73687214,3.55919052
19.09068037,1.424257187,3.057306751,1.285075328,3.609300722
19.10067437,8.251474954,10.27505362,1.251072015,13.23739955
19.11066737,14.96591689,18.88617444,2.566759272,24.23333461
19.12066175,17.3531374,23.7400955,-1.364286389,29.43781224
19.13065575,13.61984574,22.01578201,-2.804155642,26.03954962
19.14064975,2.506963013,12.88039399,2.231237851,13.31044083
19.15064275,-2.051017894,9.987261851,3.004631524,10.62919961
19.16063675,-1.638763171,10.30180697,2.784106125,10.79648176
19.17063075,-0.303549722,11.53726049,1.998445578,11.71299734
19.18062475,0.538594635,11.97383466,2.115275286,12.17116223
19.19061775,1.320986003,12.18226217,2.710665681,12.54990932
19.20061175,1.701019353,11.68058978,2.207334434,12.00841245
19.21060575,1.643093034,10.25724651,2.593702072,10.70692071
19.22059975,1.139518835,8.452515677,2.88407831,9.003412249
19.23059275,0.325195237,6.518048578,2.641023588,7.040292238
19.24058675,-0.123298775,4.75126793,2.275936307,5.269690275
19.25058075,-0.25836624,2.987783942,1.926387416,3.564347692
19.26057475,-0.386086095,1.349768338,1.324403701,1.930021295
19.27056775,-0.537678961,-0.007620676,0.610128302,0.813273192
19.28056175,-0.839923585,-1.341986278,0.387250568,1.6298349
19.29055575,-1.122374799,-2.605278389,0.245509364,2.847362907
19.30054975,-1.231148797,-3.755396472,0.065362515,3.952594374
19.31054275,-1.230835094,-4.881356784,0.476566202,5.056650514
19.32053675,-1.349714251,-5.992212567,-0.483146659,6.161312417
19.33053075,-1.131611061,-7.191513335,-0.273554968,7.285138294
19.34052475,-0.691411909,-8.124476938,-0.003603644,8.15384504
19.35051775,-0.358802986,-9.118853847,-0.854881055,9.165863663
19.36051175,-0.095292073,-9.783964688,-1.656856502,9.923720021
